onset	duration	nback_display	trial_type	response	response_time	correct_response	correct	stim_file
0	1	3	0	6	0	3	n/a	3_0.gif
1	1	4	0	3	0.14	4	0	4_0.gif
2	1	2	0	3	0.266	2	0	2_0.gif
3	1	4	0	2	0.003	4	0	4_0.gif
4	1	2	0	3	0.003	2	0	2_0.gif
5	1	3	0	4	0.126	3	0	3_0.gif
6	1	2	0	1	0.072	2	0	2_0.gif
7	1	4	0	4	0.003	4	1	4_0.gif
8	1	1	0	3	0.003	1	0	1_0.gif
9	1	2	0	1	0.003	2	0	2_0.gif
10	1	1	0	2	0.003	1	0	1_0.gif
11	1	2	0	2	0.003	2	1	2_0.gif
12	1	1	0	2	0.29	1	0	1_0.gif
13	1	3	0	3	0.616	3	1	3_0.gif
14	1	2	0	4	0.883	2	0	2_0.gif
15	1	4	0	4	0.003	4	1	4_0.gif
16	1	3	2	3	0.156	2	0	3_2.gif
17	1	2	2	6	0	4	n/a	2_2.gif
18	1	4	2	6	0	3	n/a	4_2.gif
19	1	1	2	3	0.026	2	0	1_2.gif
20	1	4	2	2	0.175	4	0	4_2.gif
21	1	2	2	6	0	1	n/a	2_2.gif
22	1	1	2	6	0	4	n/a	1_2.gif
23	1	2	2	4	0.593	2	0	2_2.gif
24	1	1	2	2	0.818	1	0	1_2.gif
25	1	4	2	2	0.003	2	1	4_2.gif
26	1	1	2	4	0.206	1	0	1_2.gif
27	1	2	2	3	0.089	4	0	2_2.gif
28	1	4	2	6	0	1	n/a	4_2.gif
29	1	1	2	3	0.448	2	0	1_2.gif
30	1	2	2	6	0	4	n/a	2_2.gif
31	1	3	2	2	0.07	1	0	3_2.gif
32	1	2	0	2	0.7	2	1	2_0.gif
33	1	3	0	2	0.004	3	0	3_0.gif
34	1	4	0	3	0.004	4	0	4_0.gif
35	1	2	0	3	0.487	2	0	2_0.gif
36	1	3	0	4	0.026	3	0	3_0.gif
37	1	1	0	2	0.858	1	0	1_0.gif
38	1	2	0	2	0.004	2	1	2_0.gif
39	1	1	0	2	0.648	1	0	1_0.gif
40	1	3	0	3	0.669	3	1	3_0.gif
41	1	4	0	6	0	4	n/a	4_0.gif
42	1	1	0	1	0.119	1	1	1_0.gif
43	1	2	0	2	0.109	2	1	2_0.gif
44	1	1	0	4	0.004	1	0	1_0.gif
45	1	4	0	2	0.004	4	0	4_0.gif
46	1	3	0	3	0.004	3	1	3_0.gif
47	1	2	0	1	0.004	2	0	2_0.gif
48.001	1	3	2	4	0.003	3	0	3_2.gif
49.001	1	1	2	6	0	2	n/a	1_2.gif
50.001	1	2	2	3	0.776	3	1	2_2.gif
51.001	1	4	2	3	0.003	1	0	4_2.gif
52.001	1	3	2	2	0.003	2	1	3_2.gif
53.001	1	1	2	4	0.003	4	1	1_2.gif
54.001	1	4	2	3	0.039	3	1	4_2.gif
55.001	1	1	2	6	0	1	n/a	1_2.gif
56.001	1	3	2	1	0.18	4	0	3_2.gif
57.001	1	2	2	6	0	1	n/a	2_2.gif
58.001	1	3	2	3	0.28	3	1	3_2.gif
59.001	1	2	2	4	0.766	2	0	2_2.gif
60.001	1	3	2	4	0.003	3	0	3_2.gif
61.001	1	1	2	3	0.119	2	0	1_2.gif
62.001	1	3	2	6	0	3	n/a	3_2.gif
63.001	1	4	2	2	0.695	1	0	4_2.gif
64.001	1	1	0	2	0.003	1	0	1_0.gif
65.001	1	2	0	3	0.003	2	0	2_0.gif
66.001	1	4	0	2	0.003	4	0	4_0.gif
67.001	1	1	0	2	0.877	1	0	1_0.gif
68.001	1	4	0	2	0.003	4	0	4_0.gif
69.001	1	1	0	2	0.574	1	0	1_0.gif
70.001	1	3	0	1	0.892	3	0	3_0.gif
71.001	1	4	0	1	0.003	4	0	4_0.gif
72.001	1	2	0	3	0.003	2	0	2_0.gif
73.001	1	1	0	4	0.003	1	0	1_0.gif
74.001	1	2	0	4	0.653	2	0	2_0.gif
75.001	1	3	0	3	0.737	3	1	3_0.gif
76.001	1	1	0	3	0.003	1	0	1_0.gif
77.001	1	4	0	3	0.7	4	0	4_0.gif
78.001	1	1	0	2	0.671	1	0	1_0.gif
79.001	1	2	0	4	0.685	2	0	2_0.gif
80.001	1	3	2	6	0	1	n/a	3_2.gif
81.001	1	4	2	6	0	2	n/a	4_2.gif
82.001	1	1	2	1	0.716	3	0	1_2.gif
83.001	1	2	2	1	0.003	4	0	2_2.gif
84.001	1	3	2	3	0.003	1	0	3_2.gif
85.001	1	4	2	2	0.056	2	1	4_2.gif
86.001	1	3	2	4	0.272	3	0	3_2.gif
87.001	1	4	2	3	0.569	4	0	4_2.gif
88.001	1	1	2	6	0	3	n/a	1_2.gif
89.001	1	4	2	3	0.722	4	0	4_2.gif
90.001	1	2	2	3	0.003	1	0	2_2.gif
91.001	1	3	2	2	0.147	4	0	3_2.gif
92.001	1	2	2	4	0.873	2	0	2_2.gif
93.001	1	4	2	4	0.003	3	0	4_2.gif
94.001	1	3	2	3	0.749	2	0	3_2.gif
95.001	1	4	2	6	0	4	n/a	4_2.gif
96.001	1	1	0	4	0.128	1	0	1_0.gif
97.001	1	4	0	2	0.449	4	0	4_0.gif
98.001	1	3	0	3	0.189	3	1	3_0.gif
99.001	1	4	0	4	0.561	4	1	4_0.gif
100.001	1	2	0	2	0.86	2	1	2_0.gif
101.001	1	4	0	2	0.004	4	0	4_0.gif
102.001	1	2	0	3	0.004	2	0	2_0.gif
103.001	1	1	0	4	0.004	1	0	1_0.gif
104.001	1	2	0	2	0.063	2	1	2_0.gif
105.001	1	4	0	4	0.004	4	1	4_0.gif
106.001	1	2	0	3	0.004	2	0	2_0.gif
107.001	1	4	0	4	0.004	4	1	4_0.gif
108.001	1	1	0	6	0	1	n/a	1_0.gif
109.001	1	4	0	2	0.088	4	0	4_0.gif
110.001	1	2	0	4	0.551	2	0	2_0.gif
111.001	1	4	0	3	0.679	4	0	4_0.gif
112.002	1	2	2	6	0	2	n/a	2_2.gif
113.002	1	1	2	6	0	4	n/a	1_2.gif
114.002	1	2	2	4	0.67	2	0	2_2.gif
115.002	1	4	2	4	0.003	1	0	4_2.gif
116.002	1	3	2	4	0.242	2	0	3_2.gif
117.002	1	4	2	3	0.262	4	0	4_2.gif
118.002	1	1	2	1	0.951	3	0	1_2.gif
119.002	1	2	2	1	0.003	4	0	2_2.gif
120.002	1	3	2	2	0.379	1	0	3_2.gif
121.002	1	4	2	4	0.546	2	0	4_2.gif
122.002	1	1	2	6	0	3	n/a	1_2.gif
123.002	1	2	2	2	0.465	4	0	2_2.gif
124.002	1	1	2	4	0.222	1	0	1_2.gif
125.002	1	4	2	4	0.76	2	0	4_2.gif
126.002	1	3	2	4	0.003	1	0	3_2.gif
127.002	1	1	2	4	0.149	4	1	1_2.gif
128.002	1	4	0	3	0.937	4	0	4_0.gif
129.002	1	1	0	3	0.003	1	0	1_0.gif
130.002	1	4	0	2	0.003	4	0	4_0.gif
131.002	1	1	0	2	0.468	1	0	1_0.gif
132.002	1	4	0	3	0.397	4	0	4_0.gif
133.002	1	2	0	4	0.92	2	0	2_0.gif
134.002	1	1	0	4	0.003	1	0	1_0.gif
135.002	1	3	0	2	0.003	3	0	3_0.gif
136.002	1	2	0	6	0	2	n/a	2_0.gif
137.002	1	4	0	4	0.128	4	1	4_0.gif
138.002	1	3	0	3	0.171	3	1	3_0.gif
139.002	1	1	0	1	0.003	1	1	1_0.gif
140.002	1	4	0	2	0.003	4	0	4_0.gif
141.002	1	2	0	4	0.61	2	0	2_0.gif
142.002	1	1	0	2	0.635	1	0	1_0.gif
143.002	1	4	0	3	0.469	4	0	4_0.gif
144.002	1	2	2	6	0	1	n/a	2_2.gif
145.002	1	1	2	6	0	4	n/a	1_2.gif
146.002	1	2	2	6	0	2	n/a	2_2.gif
147.002	1	4	2	4	0.248	1	0	4_2.gif
148.002	1	2	2	2	0.081	2	1	2_2.gif
149.002	1	3	2	4	0.023	4	1	3_2.gif
150.002	1	4	2	3	0.003	2	0	4_2.gif
151.002	1	2	2	1	0.11	3	0	2_2.gif
152.002	1	3	2	2	0.583	4	0	3_2.gif
153.002	1	2	2	6	0	2	n/a	2_2.gif
154.002	1	4	2	1	0.137	3	0	4_2.gif
155.002	1	1	2	3	0.214	2	0	1_2.gif
156.002	1	2	2	6	0	4	n/a	2_2.gif
157.002	1	1	2	6	0	1	n/a	1_2.gif
158.002	1	3	2	2	0.71	2	1	3_2.gif
159.002	1	2	2	2	0.003	1	0	2_2.gif
160.002	1	1	0	1	0.004	1	1	1_0.gif
161.002	1	3	0	3	0.688	3	1	3_0.gif
162.002	1	1	0	2	0.741	1	0	1_0.gif
163.002	1	4	0	2	0.004	4	0	4_0.gif
164.002	1	1	0	3	0.004	1	0	1_0.gif
165.002	1	2	0	4	0.553	2	0	2_0.gif
166.002	1	3	0	1	0.709	3	0	3_0.gif
167.002	1	4	0	3	0.499	4	0	4_0.gif
168.002	1	2	0	4	0.711	2	0	2_0.gif
169.002	1	4	0	3	0.605	4	0	4_0.gif
170.002	1	2	0	4	0.553	2	0	2_0.gif
171.002	1	4	0	3	0.442	4	0	4_0.gif
172.002	1	2	0	4	0.31	2	0	2_0.gif
173.002	1	3	0	3	0.27	3	1	3_0.gif
174.002	1	4	0	1	0.107	4	0	4_0.gif
175.002	1	1	0	3	0.024	1	0	1_0.gif
176.003	1	4	2	2	0.003	4	0	4_2.gif
177.003	1	2	2	6	0	1	n/a	2_2.gif
178.003	1	1	2	3	0.929	4	0	1_2.gif
179.003	1	2	2	3	0.003	2	0	2_2.gif
180.003	1	3	2	4	0.336	1	0	3_2.gif
181.003	1	4	2	2	0.093	2	1	4_2.gif
182.003	1	2	2	4	0.022	3	0	2_2.gif
183.003	1	4	2	3	0.003	4	0	4_2.gif
184.003	1	2	2	2	0.447	2	1	2_2.gif
185.003	1	3	2	3	0.666	4	0	3_2.gif
186.003	1	4	2	6	0	2	n/a	4_2.gif
187.003	1	1	2	3	0.385	3	1	1_2.gif
188.003	1	3	2	4	0.384	4	1	3_2.gif
189.003	1	2	2	2	0.315	1	0	2_2.gif
190.003	1	3	2	3	0.754	3	1	3_2.gif
191.003	1	2	2	3	0.003	2	0	2_2.gif
192.003	1	4	0	4	0.003	4	1	4_0.gif
193.003	1	2	0	3	0.003	2	0	2_0.gif
194.003	1	3	0	4	0.003	3	0	3_0.gif
195.003	1	2	0	1	0.003	2	0	2_0.gif
196.003	1	4	0	4	0.003	4	1	4_0.gif
197.003	1	1	0	2	0.695	1	0	1_0.gif
198.003	1	2	0	4	0.663	2	0	2_0.gif
199.003	1	1	0	2	0.669	1	0	1_0.gif
200.003	1	2	0	2	0.003	2	1	2_0.gif
201.003	1	1	0	6	0	1	n/a	1_0.gif
202.003	1	3	0	4	0.396	3	0	3_0.gif
203.003	1	2	0	2	0.454	2	1	2_0.gif
204.003	1	4	0	3	0.36	4	0	4_0.gif
205.003	1	3	0	4	0.476	3	0	3_0.gif
206.003	1	2	0	6	0	2	n/a	2_0.gif
207.003	1	4	0	3	0.71	4	0	4_0.gif
208.003	1	1	2	6	0	2	n/a	1_2.gif
209.003	1	4	2	2	0.204	4	0	4_2.gif
210.003	1	2	2	4	0.991	1	0	2_2.gif
211.003	1	1	2	4	0.003	4	1	1_2.gif
212.003	1	2	2	6	0	2	n/a	2_2.gif
213.003	1	1	2	6	0	1	n/a	1_2.gif
214.003	1	4	2	2	0.518	2	1	4_2.gif
215.003	1	1	2	4	0.843	1	0	1_2.gif
216.003	1	2	2	4	0.003	4	1	2_2.gif
217.003	1	4	2	6	0	1	n/a	4_2.gif
218.003	1	1	2	6	0	2	n/a	1_2.gif
219.003	1	2	2	3	0.006	4	0	2_2.gif
220.003	1	3	2	2	0.649	1	0	3_2.gif
221.003	1	2	2	1	0.889	2	0	2_2.gif
222.003	1	3	2	1	0.003	3	0	3_2.gif
223.003	1	4	2	3	0.496	2	0	4_2.gif
224.003	1	2	0	6	0	2	n/a	2_0.gif
225.003	1	3	0	2	0.165	3	0	3_0.gif
226.003	1	1	0	2	0.388	1	0	1_0.gif
227.003	1	2	0	2	0.562	2	1	2_0.gif
228.003	1	1	0	2	0.78	1	0	1_0.gif
229.003	1	3	0	2	0.004	3	0	3_0.gif
230.003	1	4	0	3	0.746	4	0	4_0.gif
231.003	1	1	0	3	0.004	1	0	1_0.gif
232.003	1	2	0	2	0.004	2	1	2_0.gif
233.003	1	1	0	4	0.243	1	0	1_0.gif
234.003	1	4	0	2	0.046	4	0	4_0.gif
235.003	1	3	0	1	0.004	3	0	3_0.gif
236.003	1	2	0	1	0.004	2	0	2_0.gif
237.003	1	3	0	2	0.004	3	0	3_0.gif
238.003	1	1	0	1	0.079	1	1	1_0.gif
239.003	1	2	0	2	0.004	2	1	2_0.gif
240.004	1	4	2	6	0	1	n/a	4_2.gif
241.004	1	3	2	6	0	2	n/a	3_2.gif
242.004	1	1	2	3	0.683	4	0	1_2.gif
243.004	1	4	2	1	0.44	3	0	4_2.gif
244.004	1	1	2	2	0.383	1	0	1_2.gif
245.004	1	3	2	4	0.577	4	1	3_2.gif
246.004	1	2	2	3	0.66	1	0	2_2.gif
247.004	1	3	2	3	0.543	3	1	3_2.gif
248.004	1	2	2	2	0.873	2	1	2_2.gif
249.004	1	3	2	2	0.003	3	0	3_2.gif
250.004	1	1	2	3	0.603	2	0	1_2.gif
251.004	1	3	2	6	0	3	n/a	3_2.gif
252.004	1	4	2	2	0.338	1	0	4_2.gif
253.004	1	1	2	3	0.344	3	1	1_2.gif
254.004	1	2	2	3	0.795	4	0	2_2.gif
255.004	1	4	2	3	0.003	1	0	4_2.gif
