onset	duration	nback_display	trial_type	response	response_time	correct_response	correct	stim_file
0	duration	4	0	4	0.786	4	1	4_0.gif
1	duration	3	0	3	0.393	3	1	3_0.gif
2	duration	2	0	2	0.366	2	1	2_0.gif
3	duration	4	0	4	0.38	4	1	4_0.gif
4	duration	3	0	3	0.725	3	1	3_0.gif
5	duration	4	0	3	0.003	4	0	4_0.gif
6	duration	1	0	1	0.4	1	1	1_0.gif
7	duration	3	0	3	0.288	3	1	3_0.gif
8	duration	2	0	2	0.243	2	1	2_0.gif
9	duration	1	0	1	0.332	1	1	1_0.gif
10	duration	3	0	3	0.27	3	1	3_0.gif
11	duration	1	0	1	0.35	1	1	1_0.gif
12	duration	2	0	2	0.266	2	1	2_0.gif
13	duration	3	0	3	0.247	3	1	3_0.gif
14	duration	2	0	2	0.302	2	1	2_0.gif
15	duration	3	0	3	0.302	3	1	3_0.gif
16	duration	2	2	2	0.44	2	1	2_2.gif
17	duration	4	2	6	0	3	n/a	4_2.gif
18	duration	3	2	2	0.245	2	1	3_2.gif
19	duration	2	2	4	0.213	4	1	2_2.gif
20	duration	4	2	3	0.196	3	1	4_2.gif
21	duration	2	2	2	0.113	2	1	2_2.gif
22	duration	3	2	4	0.101	4	1	3_2.gif
23	duration	1	2	2	0.079	2	1	1_2.gif
24	duration	4	2	3	0.003	3	1	4_2.gif
25	duration	2	2	1	0.003	1	1	2_2.gif
26	duration	3	2	4	0.003	4	1	3_2.gif
27	duration	1	2	2	0.003	2	1	1_2.gif
28	duration	4	2	3	0.003	3	1	4_2.gif
29	duration	3	2	4	0.7	1	0	3_2.gif
30	duration	2	2	3	0.501	4	0	2_2.gif
31	duration	1	2	2	0.412	3	0	1_2.gif
32	duration	2	0	1	0.232	2	0	2_0.gif
33	duration	3	0	3	0.43	3	1	3_0.gif
34	duration	1	0	1	0.325	1	1	1_0.gif
35	duration	2	0	2	0.264	2	1	2_0.gif
36	duration	4	0	4	0.495	4	1	4_0.gif
37	duration	1	0	1	0.375	1	1	1_0.gif
38	duration	4	0	4	0.386	4	1	4_0.gif
39	duration	2	0	2	0.286	2	1	2_0.gif
40	duration	3	0	3	0.267	3	1	3_0.gif
41	duration	4	0	4	0.473	4	1	4_0.gif
42	duration	3	0	3	0.292	3	1	3_0.gif
43	duration	4	0	4	0.379	4	1	4_0.gif
44	duration	2	0	2	0.283	2	1	2_0.gif
45	duration	4	0	4	0.414	4	1	4_0.gif
46	duration	2	0	2	0.32	2	1	2_0.gif
47	duration	3	0	3	0.301	3	1	3_0.gif
48	duration	2	2	6	0	2	n/a	2_2.gif
49	duration	1	2	6	0	3	n/a	1_2.gif
50	duration	4	2	2	0.042	2	1	4_2.gif
51	duration	2	2	1	0.003	1	1	2_2.gif
52	duration	3	2	4	0.003	4	1	3_2.gif
53	duration	4	2	2	0.003	2	1	4_2.gif
54	duration	1	2	3	0.003	3	1	1_2.gif
55	duration	2	2	4	0.003	4	1	2_2.gif
56	duration	3	2	2	0.68	1	0	3_2.gif
57	duration	4	2	3	0.797	2	0	4_2.gif
58	duration	3	2	3	0.003	3	1	3_2.gif
59	duration	2	2	3	0.442	4	0	2_2.gif
60	duration	4	2	2	0.523	3	0	4_2.gif
61	duration	2	2	4	0.299	2	0	2_2.gif
62	duration	3	2	2	0.624	4	0	3_2.gif
63	duration	1	2	6	0	2	n/a	1_2.gif
64	duration	3	0	1	0.253	3	0	3_0.gif
65	duration	2	0	2	0.388	2	1	2_0.gif
66	duration	4	0	4	0.441	4	1	4_0.gif
67	duration	1	0	1	0.326	1	1	1_0.gif
68	duration	3	0	3	0.335	3	1	3_0.gif
69	duration	4	0	4	0.363	4	1	4_0.gif
70	duration	2	0	2	0.321	2	1	2_0.gif
71	duration	3	0	3	0.283	3	1	3_0.gif
72	duration	2	0	2	0.284	2	1	2_0.gif
73	duration	4	0	4	0.411	4	1	4_0.gif
74	duration	1	0	1	0.318	1	1	1_0.gif
75	duration	2	0	2	0.269	2	1	2_0.gif
76	duration	1	0	1	0.405	1	1	1_0.gif
77	duration	2	0	2	0.299	2	1	2_0.gif
78	duration	4	0	6	0	4	n/a	4_0.gif
79	duration	3	0	3	0.291	3	1	3_0.gif
80	duration	4	2	6	0	4	n/a	4_2.gif
81	duration	2	2	6	0	3	n/a	2_2.gif
82	duration	3	2	4	0.055	4	1	3_2.gif
83	duration	1	2	2	0.017	2	1	1_2.gif
84	duration	2	2	3	0.004	3	1	2_2.gif
85	duration	1	2	1	0.004	1	1	1_2.gif
86	duration	2	2	2	0.004	2	1	2_2.gif
87	duration	3	2	1	0.004	1	1	3_2.gif
88	duration	4	2	2	0.004	2	1	4_2.gif
89	duration	1	2	3	0.665	3	1	1_2.gif
90	duration	3	2	4	0.598	4	1	3_2.gif
91	duration	4	2	1	0.303	1	1	4_2.gif
92	duration	1	2	3	0.042	3	1	1_2.gif
93	duration	2	2	4	0.004	4	1	2_2.gif
94	duration	1	2	2	0.925	1	0	1_2.gif
95	duration	3	2	2	0.004	2	1	3_2.gif
96.001	duration	4	0	1	0.132	4	0	4_0.gif
97.001	duration	3	0	4	0.018	3	0	3_0.gif
98.001	duration	2	0	2	0.346	2	1	2_0.gif
99.001	duration	1	0	1	0.331	1	1	1_0.gif
100.001	duration	2	0	2	0.351	2	1	2_0.gif
101.001	duration	1	0	1	0.324	1	1	1_0.gif
102.001	duration	3	0	3	0.314	3	1	3_0.gif
103.001	duration	2	0	2	0.323	2	1	2_0.gif
104.001	duration	4	0	4	0.41	4	1	4_0.gif
105.001	duration	3	0	3	0.267	3	1	3_0.gif
106.001	duration	2	0	2	0.237	2	1	2_0.gif
107.001	duration	3	0	3	0.246	3	1	3_0.gif
108.001	duration	1	0	1	0.328	1	1	1_0.gif
109.001	duration	3	0	3	0.317	3	1	3_0.gif
110.001	duration	1	0	2	0.27	1	0	1_0.gif
111.001	duration	3	0	3	0.405	3	1	3_0.gif
112.001	duration	1	2	6	0	1	n/a	1_2.gif
113.001	duration	3	2	6	0	3	n/a	3_2.gif
114.001	duration	1	2	1	0.025	1	1	1_2.gif
115.001	duration	4	2	3	0.003	3	1	4_2.gif
116.001	duration	2	2	1	0.003	1	1	2_2.gif
117.001	duration	1	2	2	0.44	4	0	1_2.gif
118.001	duration	3	2	1	0.309	2	0	3_2.gif
119.001	duration	2	2	6	0	1	n/a	2_2.gif
120.001	duration	4	2	3	0.114	3	1	4_2.gif
121.001	duration	1	2	2	0.003	2	1	1_2.gif
122.001	duration	2	2	1	0.698	4	0	2_2.gif
123.001	duration	3	2	2	0.377	1	0	3_2.gif
124.001	duration	4	2	3	0.562	2	0	4_2.gif
125.001	duration	3	2	4	0.319	3	0	3_2.gif
126.001	duration	4	2	3	0.989	4	0	4_2.gif
127.001	duration	2	2	3	0.003	3	1	2_2.gif
128.001	duration	4	0	4	0.003	4	1	4_0.gif
129.001	duration	3	0	3	0.38	3	1	3_0.gif
130.001	duration	2	0	2	0.314	2	1	2_0.gif
131.001	duration	1	0	1	0.284	1	1	1_0.gif
132.001	duration	2	0	2	0.324	2	1	2_0.gif
133.001	duration	1	0	1	0.344	1	1	1_0.gif
134.001	duration	3	0	3	0.298	3	1	3_0.gif
135.001	duration	2	0	2	0.369	2	1	2_0.gif
136.001	duration	3	0	3	0.311	3	1	3_0.gif
137.001	duration	2	0	2	0.304	2	1	2_0.gif
138.001	duration	1	0	1	0.351	1	1	1_0.gif
139.001	duration	3	0	3	0.286	3	1	3_0.gif
140.001	duration	1	0	1	0.417	1	1	1_0.gif
141.001	duration	4	0	4	0.356	4	1	4_0.gif
142.001	duration	3	0	3	0.312	3	1	3_0.gif
143.001	duration	2	0	2	0.324	2	1	2_0.gif
144.001	duration	1	2	6	0	3	n/a	1_2.gif
145.001	duration	3	2	6	0	2	n/a	3_2.gif
146.001	duration	2	2	1	0.17	1	1	2_2.gif
147.001	duration	1	2	3	0.033	3	1	1_2.gif
148.001	duration	2	2	2	0.059	2	1	2_2.gif
149.001	duration	3	2	1	0.008	1	1	3_2.gif
150.001	duration	2	2	2	0.003	2	1	2_2.gif
151.001	duration	1	2	3	0.003	3	1	1_2.gif
152.001	duration	4	2	2	0.003	2	1	4_2.gif
153.001	duration	2	2	1	0.003	1	1	2_2.gif
154.001	duration	4	2	4	0.003	4	1	4_2.gif
155.001	duration	3	2	2	0.003	2	1	3_2.gif
156.001	duration	4	2	4	0.003	4	1	4_2.gif
157.001	duration	2	2	3	0.003	3	1	2_2.gif
158.001	duration	3	2	4	0.003	4	1	3_2.gif
159.001	duration	2	2	2	0.003	2	1	2_2.gif
160.001	duration	3	0	3	0.003	3	1	3_0.gif
161.001	duration	4	0	3	0.003	4	0	4_0.gif
162.001	duration	1	0	1	0.364	1	1	1_0.gif
163.001	duration	4	0	4	0.359	4	1	4_0.gif
164.001	duration	2	0	2	0.307	2	1	2_0.gif
165.001	duration	1	0	1	0.307	1	1	1_0.gif
166.001	duration	4	0	4	0.399	4	1	4_0.gif
167.001	duration	3	0	3	0.481	3	1	3_0.gif
168.001	duration	2	0	2	0.3	2	1	2_0.gif
169.001	duration	1	0	1	0.317	1	1	1_0.gif
170.001	duration	3	0	3	0.266	3	1	3_0.gif
171.001	duration	4	0	4	0.409	4	1	4_0.gif
172.001	duration	3	0	3	0.37	3	1	3_0.gif
173.001	duration	1	0	1	0.379	1	1	1_0.gif
174.001	duration	2	0	2	0.295	2	1	2_0.gif
175.001	duration	1	0	1	0.346	1	1	1_0.gif
176.001	duration	3	2	6	0	2	n/a	3_2.gif
177.001	duration	1	2	3	0.98	1	0	1_2.gif
178.001	duration	3	2	3	0.004	3	1	3_2.gif
179.001	duration	1	2	1	0.004	1	1	1_2.gif
180.001	duration	2	2	3	0.004	3	1	2_2.gif
181.001	duration	4	2	2	0.588	1	0	4_2.gif
182.001	duration	2	2	4	0.577	2	0	2_2.gif
183.001	duration	1	2	2	0.384	4	0	1_2.gif
184.001	duration	3	2	1	0.5	2	0	3_2.gif
185.001	duration	1	2	1	0.488	1	1	1_2.gif
186.001	duration	2	2	3	0.285	3	1	2_2.gif
187.001	duration	4	2	1	0.031	1	1	4_2.gif
188.001	duration	3	2	4	0.665	2	0	3_2.gif
189.001	duration	1	2	4	0.004	4	1	1_2.gif
190.001	duration	4	2	3	0.2	3	1	4_2.gif
191.001	duration	3	2	1	0.19	1	1	3_2.gif
192.002	duration	2	0	2	0.612	2	1	2_0.gif
193.002	duration	4	0	4	0.412	4	1	4_0.gif
194.002	duration	3	0	3	0.274	3	1	3_0.gif
195.002	duration	4	0	4	0.381	4	1	4_0.gif
196.002	duration	1	0	1	0.316	1	1	1_0.gif
197.002	duration	3	0	3	0.328	3	1	3_0.gif
198.002	duration	2	0	2	0.292	2	1	2_0.gif
199.002	duration	1	0	1	0.331	1	1	1_0.gif
200.002	duration	3	0	3	0.267	3	1	3_0.gif
201.002	duration	1	0	1	0.354	1	1	1_0.gif
202.002	duration	2	0	2	0.388	2	1	2_0.gif
203.002	duration	3	0	3	0.314	3	1	3_0.gif
204.002	duration	2	0	2	0.294	2	1	2_0.gif
205.002	duration	3	0	3	0.253	3	1	3_0.gif
206.002	duration	2	0	2	0.257	2	1	2_0.gif
207.002	duration	4	0	4	0.531	4	1	4_0.gif
208.002	duration	3	2	6	0	2	n/a	3_2.gif
209.002	duration	2	2	6	0	4	n/a	2_2.gif
210.002	duration	4	2	3	0.091	3	1	4_2.gif
211.002	duration	2	2	2	0.003	2	1	2_2.gif
212.002	duration	3	2	4	0.003	4	1	3_2.gif
213.002	duration	1	2	2	0.003	2	1	1_2.gif
214.002	duration	4	2	1	0.712	3	0	4_2.gif
215.002	duration	2	2	4	0.541	1	0	2_2.gif
216.002	duration	3	2	2	0.908	4	0	3_2.gif
217.002	duration	1	2	2	0.003	2	1	1_2.gif
218.002	duration	4	2	3	0.084	3	1	4_2.gif
219.002	duration	3	2	1	0.091	1	1	3_2.gif
220.002	duration	2	2	4	0.008	4	1	2_2.gif
221.002	duration	1	2	3	0.003	3	1	1_2.gif
222.002	duration	2	2	2	0.003	2	1	2_2.gif
223.002	duration	3	2	1	0.003	1	1	3_2.gif
224.002	duration	1	0	2	0.003	1	0	1_0.gif
225.002	duration	2	0	2	0.413	2	1	2_0.gif
226.002	duration	4	0	4	0.36	4	1	4_0.gif
227.002	duration	1	0	1	0.326	1	1	1_0.gif
228.002	duration	4	0	4	0.333	4	1	4_0.gif
229.002	duration	2	0	2	0.331	2	1	2_0.gif
230.002	duration	3	0	3	0.302	3	1	3_0.gif
231.002	duration	4	0	4	0.353	4	1	4_0.gif
232.002	duration	3	0	3	0.313	3	1	3_0.gif
233.002	duration	4	0	4	0.392	4	1	4_0.gif
234.002	duration	2	0	2	0.31	2	1	2_0.gif
235.002	duration	4	0	4	0.358	4	1	4_0.gif
236.002	duration	2	0	2	0.364	2	1	2_0.gif
237.002	duration	3	0	3	0.304	3	1	3_0.gif
238.002	duration	2	0	2	0.314	2	1	2_0.gif
239.002	duration	1	0	1	0.334	1	1	1_0.gif
240.002	duration	4	2	6	0	2	n/a	4_2.gif
241.002	duration	2	2	6	0	1	n/a	2_2.gif
242.002	duration	3	2	4	0.032	4	1	3_2.gif
243.002	duration	4	2	2	0.003	2	1	4_2.gif
244.002	duration	1	2	3	0.003	3	1	1_2.gif
245.002	duration	2	2	4	0.003	4	1	2_2.gif
246.002	duration	3	2	2	0.034	1	0	3_2.gif
247.002	duration	4	2	1	0.003	2	0	4_2.gif
248.002	duration	3	2	2	0.003	3	0	3_2.gif
249.002	duration	2	2	3	0.003	4	0	2_2.gif
250.002	duration	4	2	4	0.003	3	0	4_2.gif
251.002	duration	2	2	3	0.003	2	0	2_2.gif
252.002	duration	3	2	6	0	4	n/a	3_2.gif
253.002	duration	1	2	6	0	2	n/a	1_2.gif
254.002	duration	3	2	3	0.008	3	1	3_2.gif
255.002	duration	2	2	1	0.049	1	1	2_2.gif
