onset	duration	nback_display	trial_type	response	response_time	correct_response	correct	stim_file
0	1	2	0	2	0.63	2	1	2_0.gif
1	1	1	0	1	0.529	1	1	1_0.gif
2	1	4	0	6	0	4	n/a	4_0.gif
3	1	2	0	4	0.059	2	0	2_0.gif
4	1	1	0	2	0.011	1	0	1_0.gif
5	1	4	0	4	0.588	4	1	4_0.gif
6	1	2	0	2	0.421	2	1	2_0.gif
7	1	4	0	4	0.67	4	1	4_0.gif
8	1	1	0	1	0.55	1	1	1_0.gif
9	1	4	0	4	0.756	4	1	4_0.gif
10	1	3	0	3	0.531	3	1	3_0.gif
11	1	1	0	1	0.456	1	1	1_0.gif
12	1	3	0	3	0.402	3	1	3_0.gif
13	1	4	0	4	0.434	4	1	4_0.gif
14	1	1	0	1	0.483	1	1	1_0.gif
15	1	3	0	3	0.378	3	1	3_0.gif
16	1	1	2	6	0	1	n/a	1_2.gif
17	1	4	2	6	0	3	n/a	4_2.gif
18	1	1	2	1	0.346	1	1	1_2.gif
19	1	3	2	4	0.019	4	1	3_2.gif
20	1	4	2	1	0.012	1	1	4_2.gif
21	1	2	2	3	0.011	3	1	2_2.gif
22	1	1	2	2	0.593	4	0	1_2.gif
23	1	2	2	1	0.434	2	0	2_2.gif
24	1	3	2	2	0.251	1	0	3_2.gif
25	1	4	2	3	0.031	2	0	4_2.gif
26	1	3	2	4	0.009	3	0	3_2.gif
27	1	1	2	1	0.556	4	0	1_2.gif
28	1	4	2	4	0.526	3	0	4_2.gif
29	1	1	2	1	0.503	1	1	1_2.gif
30	1	4	2	4	0.511	4	1	4_2.gif
31	1	2	2	2	0.498	1	0	2_2.gif
32.001	1	4	0	4	0.785	4	1	4_0.gif
33.001	1	1	0	4	0.011	1	0	1_0.gif
34.001	1	3	0	3	0.528	3	1	3_0.gif
35.001	1	4	0	6	0	4	n/a	4_0.gif
36.001	1	1	0	1	0.543	1	1	1_0.gif
37.001	1	2	0	2	0.664	2	1	2_0.gif
38.001	1	4	0	4	0.658	4	1	4_0.gif
39.001	1	2	0	2	0.567	2	1	2_0.gif
40.001	1	1	0	1	0.482	1	1	1_0.gif
41.001	1	4	0	4	0.408	4	1	4_0.gif
42.001	1	3	0	3	0.383	3	1	3_0.gif
43.001	1	2	0	2	0.368	2	1	2_0.gif
44.001	1	1	0	1	0.419	1	1	1_0.gif
45.001	1	2	0	2	0.474	2	1	2_0.gif
46.001	1	3	0	3	0.427	3	1	3_0.gif
47.001	1	1	0	1	0.491	1	1	1_0.gif
48.001	1	4	2	6	0	3	n/a	4_2.gif
49.001	1	3	2	6	0	1	n/a	3_2.gif
50.001	1	1	2	4	0.398	4	1	1_2.gif
51.001	1	2	2	3	0.328	3	1	2_2.gif
52.001	1	3	2	4	0.296	1	0	3_2.gif
53.001	1	1	2	1	0.063	2	0	1_2.gif
54.001	1	2	2	2	0.01	3	0	2_2.gif
55.001	1	3	2	3	0.011	1	0	3_2.gif
56.001	1	4	2	2	0.473	2	1	4_2.gif
57.001	1	1	2	3	0.301	3	1	1_2.gif
58.001	1	2	2	4	0.26	4	1	2_2.gif
59.001	1	1	2	1	0.106	1	1	1_2.gif
60.001	1	4	2	2	0.082	2	1	4_2.gif
61.001	1	2	2	1	0.027	1	1	2_2.gif
62.001	1	4	2	4	0.011	4	1	4_2.gif
63.001	1	2	2	4	0.612	2	0	2_2.gif
64.003	1	1	0	1	0.784	1	1	1_0.gif
65.003	1	2	0	1	0.008	2	0	2_0.gif
66.003	1	1	0	1	0.509	1	1	1_0.gif
67.003	1	2	0	2	0.329	2	1	2_0.gif
68.003	1	1	0	1	0.289	1	1	1_0.gif
69.003	1	2	0	2	0.275	2	1	2_0.gif
70.003	1	4	0	4	0.676	4	1	4_0.gif
71.003	1	3	0	3	0.455	3	1	3_0.gif
72.003	1	1	0	1	0.398	1	1	1_0.gif
73.003	1	2	0	2	0.286	2	1	2_0.gif
74.003	1	4	0	4	0.662	4	1	4_0.gif
75.003	1	2	0	2	0.525	2	1	2_0.gif
76.003	1	4	0	4	0.696	4	1	4_0.gif
77.003	1	1	0	1	0.524	1	1	1_0.gif
78.003	1	3	0	3	0.424	3	1	3_0.gif
79.003	1	4	0	4	0.505	4	1	4_0.gif
80.004	1	3	2	6	0	3	n/a	3_2.gif
81.004	1	4	2	6	0	4	n/a	4_2.gif
82.004	1	2	2	3	0.318	3	1	2_2.gif
83.004	1	1	2	4	0.283	4	1	1_2.gif
84.004	1	4	2	2	0.19	2	1	4_2.gif
85.004	1	3	2	1	0.125	1	1	3_2.gif
86.004	1	4	2	4	0.061	4	1	4_2.gif
87.004	1	1	2	3	0.011	3	1	1_2.gif
88.004	1	4	2	4	0.027	4	1	4_2.gif
89.004	1	3	2	1	0.079	1	1	3_2.gif
90.004	1	1	2	4	0.009	4	1	1_2.gif
91.004	1	3	2	3	0.012	3	1	3_2.gif
92.004	1	4	2	1	0.011	1	1	4_2.gif
93.004	1	1	2	3	0.014	3	1	1_2.gif
94.004	1	2	2	4	0.01	4	1	2_2.gif
95.004	1	3	2	2	0.392	1	0	3_2.gif
96.004	1	2	0	3	0.266	2	0	2_0.gif
97.004	1	4	0	2	0.187	4	0	4_0.gif
98.004	1	3	0	4	0.01	3	0	3_0.gif
99.004	1	4	0	2	0.368	4	0	4_0.gif
100.004	1	2	0	4	0.01	2	0	2_0.gif
101.004	1	1	0	1	0.381	1	1	1_0.gif
102.004	1	4	0	4	0.472	4	1	4_0.gif
103.004	1	3	0	3	0.321	3	1	3_0.gif
104.004	1	1	0	1	0.468	1	1	1_0.gif
105.004	1	3	0	3	0.649	3	1	3_0.gif
106.004	1	4	0	4	0.485	4	1	4_0.gif
107.004	1	3	0	3	0.429	3	1	3_0.gif
108.004	1	2	0	2	0.466	2	1	2_0.gif
109.004	1	1	0	1	0.477	1	1	1_0.gif
110.004	1	4	0	4	0.414	4	1	4_0.gif
111.004	1	2	0	2	0.521	2	1	2_0.gif
112.005	1	3	2	6	0	4	n/a	3_2.gif
113.005	1	1	2	6	0	2	n/a	1_2.gif
114.005	1	3	2	3	0.342	3	1	3_2.gif
115.005	1	1	2	1	0.212	1	1	1_2.gif
116.005	1	2	2	3	0.162	3	1	2_2.gif
117.005	1	4	2	1	0.096	1	1	4_2.gif
118.005	1	3	2	2	0.01	2	1	3_2.gif
119.005	1	1	2	4	0.011	4	1	1_2.gif
120.006	1	3	2	3	0.021	3	1	3_2.gif
121.007	1	1	2	1	0.009	1	1	1_2.gif
122.007	1	4	2	3	0.009	3	1	4_2.gif
123.007	1	1	2	1	0.01	1	1	1_2.gif
124.007	1	4	2	4	0.011	4	1	4_2.gif
125.007	1	1	2	1	0.011	1	1	1_2.gif
126.007	1	3	2	4	0.011	4	1	3_2.gif
127.007	1	4	2	1	0.01	1	1	4_2.gif
128.007	1	2	0	3	0.013	2	0	2_0.gif
129.007	1	3	0	2	0.093	3	0	3_0.gif
130.007	1	2	0	3	0.01	2	0	2_0.gif
131.007	1	4	0	2	0.01	4	0	4_0.gif
132.007	1	3	0	3	0.419	3	1	3_0.gif
133.007	1	1	0	1	0.362	1	1	1_0.gif
134.008	1	4	0	4	0.498	4	1	4_0.gif
135.009	1	3	0	3	0.514	3	1	3_0.gif
136.009	1	4	0	4	0.495	4	1	4_0.gif
137.009	1	3	0	3	0.446	3	1	3_0.gif
138.009	1	4	0	4	0.497	4	1	4_0.gif
139.009	1	1	0	1	0.351	1	1	1_0.gif
140.009	1	3	0	3	0.847	3	1	3_0.gif
141.009	1	4	0	3	0.009	4	0	4_0.gif
142.009	1	3	0	3	0.486	3	1	3_0.gif
143.009	1	4	0	4	0.414	4	1	4_0.gif
144.009	1	3	2	6	0	3	n/a	3_2.gif
145.011	1	1	2	6	0	4	n/a	1_2.gif
146.012	1	3	2	3	0.318	3	1	3_2.gif
147.012	1	1	2	1	0.167	1	1	1_2.gif
148.012	1	4	2	3	0.009	3	1	4_2.gif
149.012	1	3	2	1	0.028	1	1	3_2.gif
150.012	1	1	2	3	0.009	4	0	1_2.gif
151.012	1	4	2	3	0.523	3	1	4_2.gif
152.012	1	3	2	1	0.41	1	1	3_2.gif
153.012	1	4	2	4	0.137	4	1	4_2.gif
154.012	1	1	2	3	0.01	3	1	1_2.gif
155.012	1	4	2	4	0.009	4	1	4_2.gif
156.012	1	1	2	1	0.012	1	1	1_2.gif
157.012	1	3	2	4	0.009	4	1	3_2.gif
158.012	1	1	2	1	0.013	1	1	1_2.gif
159.012	1	2	2	3	0.009	3	1	2_2.gif
160.014	1	1	0	1	0.009	1	1	1_0.gif
161.014	1	2	0	1	0.011	2	0	2_0.gif
162.014	1	4	0	4	0.625	4	1	4_0.gif
163.014	1	1	0	1	0.775	1	1	1_0.gif
164.014	1	4	0	1	0.008	4	0	4_0.gif
165.014	1	2	0	2	0.63	2	1	2_0.gif
166.014	1	1	0	1	0.435	1	1	1_0.gif
167.014	1	4	0	4	0.562	4	1	4_0.gif
168.014	1	2	0	2	0.653	2	1	2_0.gif
169.014	1	1	0	1	0.504	1	1	1_0.gif
170.014	1	2	0	2	0.562	2	1	2_0.gif
171.014	1	3	0	3	0.603	3	1	3_0.gif
172.014	1	4	0	4	0.533	4	1	4_0.gif
173.014	1	3	0	3	0.554	3	1	3_0.gif
174.014	1	2	0	2	0.489	2	1	2_0.gif
175.014	1	3	0	3	0.46	3	1	3_0.gif
176.015	1	1	2	6	0	2	n/a	1_2.gif
177.015	1	2	2	6	0	3	n/a	2_2.gif
178.015	1	1	2	1	0.248	1	1	1_2.gif
179.015	1	4	2	2	0.229	2	1	4_2.gif
180.015	1	3	2	1	0.158	1	1	3_2.gif
181.015	1	4	2	4	0.047	4	1	4_2.gif
182.015	1	1	2	3	0.009	3	1	1_2.gif
183.015	1	3	2	4	0.01	4	1	3_2.gif
184.015	1	1	2	1	0.011	1	1	1_2.gif
185.015	1	4	2	4	0.009	3	0	4_2.gif
186.015	1	3	2	3	0.009	1	0	3_2.gif
187.015	1	4	2	4	0.593	4	1	4_2.gif
188.015	1	2	2	3	0.542	3	1	2_2.gif
189.015	1	4	2	4	0.416	4	1	4_2.gif
190.015	1	3	2	2	0.265	2	1	3_2.gif
191.015	1	4	2	4	0.01	4	1	4_2.gif
192.015	1	1	0	3	0.009	1	0	1_0.gif
193.015	1	2	0	1	0.01	2	0	2_0.gif
194.015	1	3	0	2	0.01	3	0	3_0.gif
195.015	1	4	0	4	0.483	4	1	4_0.gif
196.015	1	1	0	1	0.424	1	1	1_0.gif
197.015	1	4	0	4	0.576	4	1	4_0.gif
198.015	1	2	0	2	0.396	2	1	2_0.gif
199.015	1	1	0	1	0.421	1	1	1_0.gif
200.015	1	4	0	4	0.361	4	1	4_0.gif
201.015	1	2	0	2	0.442	2	1	2_0.gif
202.015	1	4	0	4	0.531	4	1	4_0.gif
203.015	1	1	0	1	0.505	1	1	1_0.gif
204.015	1	4	0	4	0.484	4	1	4_0.gif
205.015	1	3	0	1	0.758	3	0	3_0.gif
206.015	1	1	0	3	0.45	1	0	1_0.gif
207.015	1	3	0	1	0.124	3	0	3_0.gif
208.016	1	4	2	6	0	1	n/a	4_2.gif
209.016	1	1	2	6	0	3	n/a	1_2.gif
210.016	1	3	2	4	0.095	4	1	3_2.gif
211.016	1	1	2	1	0.082	1	1	1_2.gif
212.017	1	4	2	4	0.008	3	0	4_2.gif
213.017	1	1	2	1	0.009	1	1	1_2.gif
214.017	1	3	2	4	0.499	4	1	3_2.gif
215.017	1	4	2	1	0.371	1	1	4_2.gif
216.017	1	2	2	3	0.284	3	1	2_2.gif
217.017	1	1	2	4	0.158	4	1	1_2.gif
218.018	1	2	2	2	0.009	2	1	2_2.gif
219.018	1	3	2	1	0.011	1	1	3_2.gif
220.018	1	4	2	2	0.01	2	1	4_2.gif
221.018	1	3	2	4	0.635	3	0	3_2.gif
222.018	1	1	2	3	0.56	4	0	1_2.gif
223.018	1	4	2	1	0.393	3	0	4_2.gif
224.019	1	1	0	4	0.253	1	0	1_0.gif
225.019	1	4	0	1	0.008	4	0	4_0.gif
226.019	1	2	0	2	0.414	2	1	2_0.gif
227.019	1	4	0	4	0.579	4	1	4_0.gif
228.019	1	1	0	1	0.374	1	1	1_0.gif
229.019	1	3	0	3	0.614	3	1	3_0.gif
230.019	1	4	0	4	0.354	4	1	4_0.gif
231.019	1	1	0	1	0.449	1	1	1_0.gif
232.019	1	2	0	2	0.356	2	1	2_0.gif
233.019	1	4	0	4	0.506	4	1	4_0.gif
234.019	1	2	0	2	0.428	2	1	2_0.gif
235.019	1	1	0	1	0.327	1	1	1_0.gif
236.02	1	4	0	4	0.375	4	1	4_0.gif
237.02	1	3	0	3	0.508	3	1	3_0.gif
238.02	1	2	0	2	0.397	2	1	2_0.gif
239.02	1	1	0	1	0.348	1	1	1_0.gif
240.02	1	2	2	6	0	2	n/a	2_2.gif
241.032	1	3	2	6	0	1	n/a	3_2.gif
242.032	1	1	2	2	0.467	2	1	1_2.gif
243.032	1	4	2	3	0.327	3	1	4_2.gif
244.032	1	3	2	1	0.252	1	1	3_2.gif
245.032	1	1	2	4	0.104	4	1	1_2.gif
246.032	1	2	2	3	0.182	3	1	2_2.gif
247.032	1	3	2	1	0.269	1	1	3_2.gif
248.032	1	1	2	4	0.055	2	0	1_2.gif
249.032	1	2	2	2	0.008	3	0	2_2.gif
250.032	1	3	2	3	0.011	1	0	3_2.gif
251.032	1	4	2	1	0.01	2	0	4_2.gif
252.032	1	1	2	2	0.009	3	0	1_2.gif
253.032	1	2	2	4	0.535	4	1	2_2.gif
254.032	1	1	2	1	0.423	1	1	1_2.gif
255.032	1	4	2	2	0.226	2	1	4_2.gif
