onset	duration	nback_display	trial_type	response	response_time	correct_response	correct	stim_file
0	1	4	0	4	0.776	4	1	4_0.gif
1	1	3	0	4	0.003	3	0	3_0.gif
2	1	1	0	1	0.476	1	1	1_0.gif
3	1	4	0	4	0.403	4	1	4_0.gif
4	1	3	0	3	0.315	3	1	3_0.gif
5	1	4	0	4	0.334	4	1	4_0.gif
6	1	1	0	1	0.392	1	1	1_0.gif
7	1	4	0	4	0.332	4	1	4_0.gif
8	1	3	0	3	0.315	3	1	3_0.gif
9	1	2	0	2	0.418	2	1	2_0.gif
10	1	4	0	4	0.311	4	1	4_0.gif
11	1	1	0	1	0.364	1	1	1_0.gif
12	1	2	0	2	0.403	2	1	2_0.gif
13	1	3	0	3	0.377	3	1	3_0.gif
14	1	2	0	2	0.391	2	1	2_0.gif
15	1	3	0	3	0.37	3	1	3_0.gif
16	1	2	2	6	0	2	n/a	2_2.gif
17	1	3	2	6	0	3	n/a	3_2.gif
18	1	1	2	2	0.231	2	1	1_2.gif
19	1	4	2	3	0.118	3	1	4_2.gif
20	1	3	2	1	0.072	1	1	3_2.gif
21	1	2	2	4	0.003	4	1	2_2.gif
22	1	4	2	3	0.054	3	1	4_2.gif
23	1	2	2	2	0.027	2	1	2_2.gif
24	1	4	2	4	0.064	4	1	4_2.gif
25	1	2	2	2	0.101	2	1	2_2.gif
26	1	1	2	4	0.181	4	1	1_2.gif
27	1	3	2	2	0.122	2	1	3_2.gif
28	1	1	2	1	0.036	1	1	1_2.gif
29	1	2	2	3	0.005	3	1	2_2.gif
30	1	4	2	1	0.003	1	1	4_2.gif
31	1	3	2	6	0	2	n/a	3_2.gif
32	1	4	0	2	0.043	4	0	4_0.gif
33	1	2	0	4	0.003	2	0	2_0.gif
34	1	4	0	4	0.314	4	1	4_0.gif
35	1	1	0	1	0.378	1	1	1_0.gif
36	1	3	0	3	0.378	3	1	3_0.gif
37	1	2	0	2	0.303	2	1	2_0.gif
38	1	1	0	1	0.384	1	1	1_0.gif
39	1	4	0	4	0.298	4	1	4_0.gif
40	1	1	0	1	0.322	1	1	1_0.gif
41	1	2	0	2	0.36	2	1	2_0.gif
42	1	4	0	4	0.238	4	1	4_0.gif
43	1	3	0	3	0.347	3	1	3_0.gif
44	1	4	0	4	0.347	4	1	4_0.gif
45	1	2	0	2	0.412	2	1	2_0.gif
46	1	3	0	3	0.345	3	1	3_0.gif
47	1	1	0	1	0.334	1	1	1_0.gif
48	1	3	2	6	0	3	n/a	3_2.gif
49	1	4	2	6	0	1	n/a	4_2.gif
50	1	2	2	3	0.182	3	1	2_2.gif
51	1	3	2	4	0.076	4	1	3_2.gif
52	1	2	2	2	0.03	2	1	2_2.gif
53	1	4	2	3	0.004	3	1	4_2.gif
54	1	3	2	2	0.004	2	1	3_2.gif
55	1	4	2	3	0.977	4	0	4_2.gif
56	1	1	2	3	0.004	3	1	1_2.gif
57	1	2	2	4	0.08	4	1	2_2.gif
58	1	4	2	1	0.192	1	1	4_2.gif
59	1	1	2	2	0.15	2	1	1_2.gif
60	1	4	2	4	0.213	4	1	4_2.gif
61	1	3	2	1	0.287	1	1	3_2.gif
62	1	1	2	4	0.182	4	1	1_2.gif
63	1	3	2	3	0.142	3	1	3_2.gif
64.001	1	4	0	1	0.155	4	0	4_0.gif
65.001	1	3	0	4	0.003	3	0	3_0.gif
66.001	1	1	0	1	0.35	1	1	1_0.gif
67.001	1	4	0	4	0.321	4	1	4_0.gif
68.001	1	1	0	1	0.367	1	1	1_0.gif
69.001	1	4	0	4	0.253	4	1	4_0.gif
70.001	1	2	0	2	0.364	2	1	2_0.gif
71.001	1	1	0	1	0.341	1	1	1_0.gif
72.001	1	3	0	3	0.331	3	1	3_0.gif
73.001	1	1	0	1	0.365	1	1	1_0.gif
74.001	1	3	0	3	0.354	3	1	3_0.gif
75.001	1	2	0	2	0.384	2	1	2_0.gif
76.001	1	4	0	4	0.256	4	1	4_0.gif
77.001	1	1	0	1	0.319	1	1	1_0.gif
78.001	1	3	0	3	0.339	3	1	3_0.gif
79.001	1	2	0	2	0.358	2	1	2_0.gif
80.001	1	3	2	6	0	3	n/a	3_2.gif
81.001	1	4	2	6	0	2	n/a	4_2.gif
82.001	1	1	2	3	0.152	3	1	1_2.gif
83.001	1	2	2	4	0.076	4	1	2_2.gif
84.001	1	1	2	1	0.028	1	1	1_2.gif
85.001	1	3	2	2	0.003	2	1	3_2.gif
86.001	1	2	2	1	0.116	1	1	2_2.gif
87.001	1	1	2	3	0.178	3	1	1_2.gif
88.001	1	2	2	2	0.204	2	1	2_2.gif
89.001	1	4	2	1	0.213	1	1	4_2.gif
90.001	1	3	2	2	0.233	2	1	3_2.gif
91.001	1	1	2	4	0.17	4	1	1_2.gif
92.001	1	3	2	3	0.146	3	1	3_2.gif
93.001	1	4	2	1	0.12	1	1	4_2.gif
94.001	1	2	2	3	0.29	3	1	2_2.gif
95.001	1	3	2	4	0.041	4	1	3_2.gif
96.001	1	1	0	2	0.003	1	0	1_0.gif
97.001	1	3	0	3	0.431	3	1	3_0.gif
98.001	1	1	0	1	0.379	1	1	1_0.gif
99.001	1	4	0	4	0.347	4	1	4_0.gif
100.001	1	3	0	3	0.385	3	1	3_0.gif
101.001	1	1	0	1	0.345	1	1	1_0.gif
102.001	1	3	0	3	0.406	3	1	3_0.gif
103.001	1	1	0	1	0.341	1	1	1_0.gif
104.001	1	2	0	2	0.408	2	1	2_0.gif
105.001	1	3	0	3	0.357	3	1	3_0.gif
106.001	1	2	0	2	0.328	2	1	2_0.gif
107.001	1	1	0	1	0.358	1	1	1_0.gif
108.001	1	2	0	2	0.381	2	1	2_0.gif
109.001	1	4	0	4	0.343	4	1	4_0.gif
110.001	1	1	0	1	0.364	1	1	1_0.gif
111.001	1	4	0	4	0.366	4	1	4_0.gif
112.001	1	2	2	2	0.412	1	0	2_2.gif
113.001	1	3	2	6	0	4	n/a	3_2.gif
114.001	1	2	2	2	0.288	2	1	2_2.gif
115.001	1	4	2	3	0.231	3	1	4_2.gif
116.001	1	1	2	2	0.272	2	1	1_2.gif
117.001	1	3	2	4	0.12	4	1	3_2.gif
118.001	1	1	2	1	0.066	1	1	1_2.gif
119.001	1	2	2	3	0.118	3	1	2_2.gif
120.001	1	1	2	1	0.178	1	1	1_2.gif
121.001	1	3	2	2	0.126	2	1	3_2.gif
122.001	1	2	2	1	0.099	1	1	2_2.gif
123.001	1	3	2	3	0.075	3	1	3_2.gif
124.001	1	1	2	2	0.111	2	1	1_2.gif
125.001	1	4	2	6	0	3	n/a	4_2.gif
126.001	1	1	2	1	0.141	1	1	1_2.gif
127.001	1	2	2	4	0.147	4	1	2_2.gif
128.002	1	3	0	2	0.224	3	0	3_0.gif
129.002	1	4	0	3	0.003	4	0	4_0.gif
130.002	1	2	0	2	0.755	2	1	2_0.gif
131.002	1	1	0	1	0.422	1	1	1_0.gif
132.002	1	4	0	4	0.326	4	1	4_0.gif
133.002	1	1	0	1	0.321	1	1	1_0.gif
134.002	1	3	0	3	0.315	3	1	3_0.gif
135.002	1	4	0	4	0.292	4	1	4_0.gif
136.002	1	1	0	1	0.335	1	1	1_0.gif
137.002	1	4	0	4	0.354	4	1	4_0.gif
138.002	1	2	0	2	0.358	2	1	2_0.gif
139.002	1	1	0	1	0.287	1	1	1_0.gif
140.002	1	2	0	2	0.393	2	1	2_0.gif
141.002	1	4	0	4	0.311	4	1	4_0.gif
142.002	1	3	0	3	0.372	3	1	3_0.gif
143.002	1	2	0	2	0.339	2	1	2_0.gif
144.002	1	3	2	6	0	3	n/a	3_2.gif
145.002	1	2	2	6	0	2	n/a	2_2.gif
146.002	1	3	2	3	0.061	3	1	3_2.gif
147.002	1	4	2	2	0.003	2	1	4_2.gif
148.002	1	2	2	3	0.126	3	1	2_2.gif
149.002	1	4	2	4	0.108	4	1	4_2.gif
150.002	1	2	2	2	0.255	2	1	2_2.gif
151.002	1	3	2	4	0.162	4	1	3_2.gif
152.002	1	2	2	2	0.156	2	1	2_2.gif
153.002	1	3	2	3	0.068	3	1	3_2.gif
154.002	1	4	2	2	0.243	2	1	4_2.gif
155.002	1	2	2	6	0	3	n/a	2_2.gif
156.002	1	3	2	4	0.282	4	1	3_2.gif
157.002	1	1	2	2	0.186	2	1	1_2.gif
158.002	1	3	2	3	0.142	3	1	3_2.gif
159.002	1	1	2	1	0.015	1	1	1_2.gif
160.002	1	3	0	3	0.054	3	1	3_0.gif
161.002	1	1	0	1	0.37	1	1	1_0.gif
162.002	1	2	0	2	0.325	2	1	2_0.gif
163.002	1	3	0	3	0.388	3	1	3_0.gif
164.002	1	2	0	2	0.333	2	1	2_0.gif
165.002	1	4	0	4	0.255	4	1	4_0.gif
166.002	1	3	0	3	0.334	3	1	3_0.gif
167.002	1	2	0	2	0.331	2	1	2_0.gif
168.002	1	4	0	4	0.308	4	1	4_0.gif
169.002	1	1	0	1	0.272	1	1	1_0.gif
170.002	1	4	0	4	0.234	4	1	4_0.gif
171.002	1	1	0	1	0.349	1	1	1_0.gif
172.002	1	3	0	3	0.337	3	1	3_0.gif
173.002	1	2	0	2	0.372	2	1	2_0.gif
174.002	1	4	0	4	0.268	4	1	4_0.gif
175.002	1	1	0	1	0.319	1	1	1_0.gif
176.002	1	3	2	6	0	4	n/a	3_2.gif
177.002	1	2	2	6	0	1	n/a	2_2.gif
178.002	1	4	2	3	0.108	3	1	4_2.gif
179.002	1	1	2	2	0.073	2	1	1_2.gif
180.002	1	4	2	4	0.008	4	1	4_2.gif
181.002	1	2	2	1	0.004	1	1	2_2.gif
182.002	1	4	2	4	0.004	4	1	4_2.gif
183.002	1	1	2	2	0.004	2	1	1_2.gif
184.002	1	3	2	4	0.004	4	1	3_2.gif
185.002	1	1	2	1	0.004	1	1	1_2.gif
186.002	1	2	2	3	0.004	3	1	2_2.gif
187.002	1	3	2	1	0.019	1	1	3_2.gif
188.002	1	1	2	2	0.004	2	1	1_2.gif
189.002	1	3	2	1	0.709	3	0	3_2.gif
190.002	1	2	2	3	0.592	1	0	2_2.gif
191.002	1	3	2	2	0.481	3	0	3_2.gif
192.003	1	2	0	2	0.676	2	1	2_0.gif
193.003	1	3	0	3	0.446	3	1	3_0.gif
194.003	1	1	0	1	0.362	1	1	1_0.gif
195.003	1	3	0	3	0.363	3	1	3_0.gif
196.003	1	1	0	1	0.318	1	1	1_0.gif
197.003	1	4	0	4	0.327	4	1	4_0.gif
198.003	1	3	0	3	0.371	3	1	3_0.gif
199.003	1	1	0	1	0.315	1	1	1_0.gif
200.003	1	4	0	4	0.348	4	1	4_0.gif
201.003	1	3	0	3	0.337	3	1	3_0.gif
202.003	1	4	0	4	0.357	4	1	4_0.gif
203.003	1	1	0	1	0.311	1	1	1_0.gif
204.003	1	4	0	4	0.378	4	1	4_0.gif
205.003	1	3	0	3	0.367	3	1	3_0.gif
206.003	1	2	0	2	0.379	2	1	2_0.gif
207.003	1	4	0	4	0.392	4	1	4_0.gif
208.003	1	1	2	1	0.792	2	0	1_2.gif
209.003	1	2	2	1	0.003	4	0	2_2.gif
210.003	1	3	2	1	0.209	1	1	3_2.gif
211.003	1	2	2	2	0.176	2	1	2_2.gif
212.003	1	3	2	3	0.16	3	1	3_2.gif
213.003	1	2	2	2	0.207	2	1	2_2.gif
214.003	1	3	2	3	0.192	3	1	3_2.gif
215.003	1	1	2	2	0.159	2	1	1_2.gif
216.003	1	4	2	3	0.217	3	1	4_2.gif
217.003	1	3	2	1	0.155	1	1	3_2.gif
218.003	1	2	2	4	0.003	4	1	2_2.gif
219.003	1	4	2	3	0.003	3	1	4_2.gif
220.003	1	2	2	2	0.003	2	1	2_2.gif
221.003	1	4	2	4	0.003	4	1	4_2.gif
222.003	1	2	2	2	0.003	2	1	2_2.gif
223.003	1	1	2	4	0.004	4	1	1_2.gif
224.003	1	3	0	2	0.058	3	0	3_0.gif
225.003	1	1	0	3	0.003	1	0	1_0.gif
226.003	1	2	0	2	0.593	2	1	2_0.gif
227.003	1	4	0	4	0.287	4	1	4_0.gif
228.003	1	3	0	3	0.298	3	1	3_0.gif
229.003	1	4	0	4	0.325	4	1	4_0.gif
230.003	1	2	0	2	0.333	2	1	2_0.gif
231.003	1	4	0	4	0.279	4	1	4_0.gif
232.003	1	1	0	1	0.312	1	1	1_0.gif
233.003	1	3	0	3	0.34	3	1	3_0.gif
234.003	1	2	0	2	0.381	2	1	2_0.gif
235.003	1	1	0	1	0.385	1	1	1_0.gif
236.003	1	4	0	4	0.284	4	1	4_0.gif
237.003	1	1	0	1	0.325	1	1	1_0.gif
238.003	1	2	0	2	0.405	2	1	2_0.gif
239.003	1	4	0	4	0.283	4	1	4_0.gif
240.003	1	3	2	6	0	2	n/a	3_2.gif
241.003	1	4	2	6	0	4	n/a	4_2.gif
242.003	1	2	2	3	0.134	3	1	2_2.gif
243.003	1	3	2	4	0.084	4	1	3_2.gif
244.003	1	1	2	2	0.07	2	1	1_2.gif
245.003	1	3	2	3	0.003	3	1	3_2.gif
246.003	1	4	2	1	0.004	1	1	4_2.gif
247.003	1	2	2	3	0.004	3	1	2_2.gif
248.003	1	3	2	4	0.003	4	1	3_2.gif
249.003	1	2	2	2	0.003	2	1	2_2.gif
250.003	1	4	2	2	0.569	3	0	4_2.gif
251.003	1	3	2	4	0.59	2	0	3_2.gif
252.003	1	4	2	3	0.519	4	0	4_2.gif
253.003	1	1	2	4	0.394	3	0	1_2.gif
254.003	1	2	2	1	0.283	4	0	2_2.gif
255.003	1	4	2	2	0.396	1	0	4_2.gif
