onset	duration	nback_display	trial_type	response	response_time	correct_response	correct	stim_file
0	1	4	0	6	0	4	n/a	4_0.gif
1	1	1	0	4	0.085	1	0	1_0.gif
2	1	4	0	1	0.005	4	0	4_0.gif
3	1	2	0	2	0.531	2	1	2_0.gif
4	1	4	0	4	0.543	4	1	4_0.gif
5	1	1	0	1	0.443	1	1	1_0.gif
6	1	4	0	4	0.41	4	1	4_0.gif
7	1	1	0	1	0.342	1	1	1_0.gif
8	1	2	0	2	0.529	2	1	2_0.gif
9	1	4	0	4	0.632	4	1	4_0.gif
10	1	1	0	1	0.49	1	1	1_0.gif
11	1	2	0	2	0.412	2	1	2_0.gif
12	1	3	0	3	0.519	3	1	3_0.gif
13	1	2	0	2	0.423	2	1	2_0.gif
14	1	3	0	3	0.484	3	1	3_0.gif
15	1	2	0	2	0.348	2	1	2_0.gif
16	1	3	2	6	0	3	n/a	3_2.gif
17	1	1	2	6	0	2	n/a	1_2.gif
18	1	4	2	3	0.364	3	1	4_2.gif
19	1	3	2	1	0.298	1	1	3_2.gif
20	1	4	2	4	0.086	4	1	4_2.gif
21	1	1	2	3	0.265	3	1	1_2.gif
22	1	4	2	4	0.573	4	1	4_2.gif
23	1	1	2	1	0.258	1	1	1_2.gif
24	1	2	2	4	0.296	4	1	2_2.gif
25	1	3	2	1	0.147	1	1	3_2.gif
26	1	4	2	2	0.027	2	1	4_2.gif
27	1	2	2	3	0.233	3	1	2_2.gif
28	1	1	2	4	0.203	4	1	1_2.gif
29	1	3	2	2	0.274	2	1	3_2.gif
30.001	1	4	2	1	0.214	1	1	4_2.gif
31.001	1	1	2	3	0.165	3	1	1_2.gif
32.001	1	3	0	4	0.074	3	0	3_0.gif
33.001	1	2	0	3	0.073	2	0	2_0.gif
34.001	1	1	0	2	0.281	1	0	1_0.gif
35.001	1	4	0	1	0.138	4	0	4_0.gif
36.001	1	1	0	4	0.049	1	0	1_0.gif
37.001	1	4	0	4	0.445	4	1	4_0.gif
38.001	1	1	0	1	0.282	1	1	1_0.gif
39.001	1	4	0	4	0.303	4	1	4_0.gif
40.001	1	3	0	3	0.441	3	1	3_0.gif
41.001	1	4	0	4	0.502	4	1	4_0.gif
42.001	1	2	0	2	0.295	2	1	2_0.gif
43.001	1	3	0	3	0.447	3	1	3_0.gif
44.001	1	4	0	4	0.407	4	1	4_0.gif
45.001	1	1	0	1	0.509	1	1	1_0.gif
46.001	1	4	0	4	0.346	4	1	4_0.gif
47.001	1	2	0	2	0.493	2	1	2_0.gif
48.001	1	3	2	6	0	4	n/a	3_2.gif
49.001	1	4	2	6	0	2	n/a	4_2.gif
50.001	1	3	2	3	0.335	3	1	3_2.gif
51.002	1	4	2	4	0.168	4	1	4_2.gif
52.002	1	3	2	3	0.162	3	1	3_2.gif
53.002	1	2	2	4	0.192	4	1	2_2.gif
54.002	1	4	2	3	0.046	3	1	4_2.gif
55.002	1	1	2	4	0.007	2	0	1_2.gif
56.002	1	4	2	2	0.007	4	0	4_2.gif
57.002	1	3	2	1	0.341	1	1	3_2.gif
58.002	1	1	2	4	0.212	4	1	1_2.gif
59.002	1	3	2	1	0.007	3	0	3_2.gif
60.002	1	2	2	1	0.457	1	1	2_2.gif
61.002	1	1	2	2	0.537	3	0	1_2.gif
62.002	1	3	2	3	0.311	2	0	3_2.gif
63.002	1	1	2	1	0.007	1	1	1_2.gif
64.002	1	3	0	3	0.865	3	1	3_0.gif
65.002	1	4	0	3	0.006	4	0	4_0.gif
66.002	1	2	0	4	0.007	2	0	2_0.gif
67.002	1	4	0	4	0.534	4	1	4_0.gif
68.002	1	1	0	1	0.32	1	1	1_0.gif
69.002	1	4	0	4	0.315	4	1	4_0.gif
70.002	1	2	0	2	0.545	2	1	2_0.gif
71.002	1	1	0	1	0.481	1	1	1_0.gif
72.002	1	3	0	3	0.487	3	1	3_0.gif
73.002	1	1	0	1	0.53	1	1	1_0.gif
74.002	1	3	0	3	0.511	3	1	3_0.gif
75.002	1	2	0	2	0.553	2	1	2_0.gif
76.002	1	1	0	1	0.425	1	1	1_0.gif
77.002	1	2	0	2	0.733	2	1	2_0.gif
78.002	1	3	0	2	0.008	3	0	3_0.gif
79.002	1	4	0	4	0.452	4	1	4_0.gif
80.003	1	3	2	6	0	3	n/a	3_2.gif
81.003	1	2	2	6	0	4	n/a	2_2.gif
82.003	1	1	2	3	0.313	3	1	1_2.gif
83.004	1	2	2	2	0.257	2	1	2_2.gif
84.004	1	3	2	1	0.08	1	1	3_2.gif
85.004	1	1	2	2	0.146	2	1	1_2.gif
86.004	1	2	2	3	0.034	3	1	2_2.gif
87.004	1	4	2	1	0.006	1	1	4_2.gif
88.004	1	2	2	2	0.007	2	1	2_2.gif
89.004	1	4	2	4	0.006	4	1	4_2.gif
90.004	1	2	2	4	0.635	2	0	2_2.gif
91.004	1	3	2	6	0	4	n/a	3_2.gif
92.004	1	4	2	2	0.075	2	1	4_2.gif
93.004	1	3	2	3	0.007	3	1	3_2.gif
94.004	1	2	2	4	0.008	4	1	2_2.gif
95.004	1	1	2	4	0.448	3	0	1_2.gif
96.005	1	3	0	2	0.429	3	0	3_0.gif
97.005	1	4	0	3	0.645	4	0	4_0.gif
98.005	1	3	0	6	0	3	n/a	3_0.gif
99.005	1	2	0	3	0.119	2	0	2_0.gif
100.005	1	4	0	2	0.006	4	0	4_0.gif
101.005	1	2	0	2	0.645	2	1	2_0.gif
102.005	1	1	0	1	0.511	1	1	1_0.gif
103.005	1	2	0	2	0.51	2	1	2_0.gif
104.005	1	4	0	4	0.38	4	1	4_0.gif
105.005	1	2	0	2	0.552	2	1	2_0.gif
106.005	1	3	0	3	0.571	3	1	3_0.gif
107.005	1	4	0	4	0.516	4	1	4_0.gif
108.005	1	2	0	2	0.407	2	1	2_0.gif
109.005	1	3	0	3	0.515	3	1	3_0.gif
110.005	1	2	0	2	0.667	2	1	2_0.gif
111.005	1	4	0	4	0.42	4	1	4_0.gif
112.005	1	1	2	6	0	2	n/a	1_2.gif
113.005	1	3	2	6	0	4	n/a	3_2.gif
114.005	1	1	2	1	0.4	1	1	1_2.gif
115.005	1	2	2	3	0.161	3	1	2_2.gif
116.005	1	1	2	1	0.011	1	1	1_2.gif
117.005	1	3	2	1	0.362	2	0	3_2.gif
118.005	1	2	2	3	0.241	1	0	2_2.gif
119.005	1	3	2	2	0.158	3	0	3_2.gif
120.005	1	2	2	6	0	2	n/a	2_2.gif
121.005	1	3	2	3	0.282	3	1	3_2.gif
122.005	1	2	2	2	0.09	2	1	2_2.gif
123.005	1	1	2	3	0.061	3	1	1_2.gif
124.005	1	3	2	2	0.007	2	1	3_2.gif
125.005	1	4	2	3	0.006	1	0	4_2.gif
126.005	1	2	2	4	0.505	3	0	2_2.gif
127.005	1	1	2	6	0	4	n/a	1_2.gif
128.005	1	4	0	4	0.855	4	1	4_0.gif
129.005	1	3	0	4	0.007	3	0	3_0.gif
130.005	1	4	0	3	0.007	4	0	4_0.gif
131.005	1	1	0	4	0.006	1	0	1_0.gif
132.005	1	4	0	4	0.56	4	1	4_0.gif
133.005	1	2	0	2	0.499	2	1	2_0.gif
134.005	1	3	0	3	0.48	3	1	3_0.gif
135.005	1	2	0	2	0.424	2	1	2_0.gif
136.005	1	4	0	4	0.471	4	1	4_0.gif
137.005	1	2	0	2	0.398	2	1	2_0.gif
138.005	1	3	0	3	0.439	3	1	3_0.gif
139.005	1	2	0	2	0.502	2	1	2_0.gif
140.005	1	4	0	4	0.299	4	1	4_0.gif
141.005	1	2	0	2	0.417	2	1	2_0.gif
142.005	1	1	0	1	0.521	1	1	1_0.gif
143.005	1	3	0	3	0.487	3	1	3_0.gif
144.006	1	2	2	6	0	1	n/a	2_2.gif
145.006	1	4	2	6	0	3	n/a	4_2.gif
146.006	1	3	2	2	0.468	2	1	3_2.gif
147.006	1	1	2	4	0.334	4	1	1_2.gif
148.006	1	2	2	3	0.08	3	1	2_2.gif
149.006	1	3	2	1	0.798	1	1	3_2.gif
150.006	1	4	2	1	0.007	2	0	4_2.gif
151.006	1	2	2	3	0.469	3	1	2_2.gif
152.006	1	4	2	4	0.231	4	1	4_2.gif
153.006	1	1	2	2	0.097	2	1	1_2.gif
154.006	1	3	2	4	0.136	4	1	3_2.gif
155.006	1	4	2	1	0.007	1	1	4_2.gif
156.006	1	1	2	3	0.006	3	1	1_2.gif
157.006	1	3	2	4	0.006	4	1	3_2.gif
158.006	1	1	2	6	0	1	n/a	1_2.gif
159.006	1	3	2	6	0	3	n/a	3_2.gif
160.006	1	1	0	6	0	1	n/a	1_0.gif
161.006	1	2	0	1	0.267	2	0	2_0.gif
162.006	1	3	0	2	0.341	3	0	3_0.gif
163.006	1	2	0	3	0.255	2	0	2_0.gif
164.006	1	4	0	4	0.722	4	1	4_0.gif
165.006	1	3	0	4	0.007	3	0	3_0.gif
166.006	1	1	0	1	0.36	1	1	1_0.gif
167.008	1	3	0	3	0.492	3	1	3_0.gif
168.008	1	4	0	4	0.364	4	1	4_0.gif
169.008	1	1	0	1	0.412	1	1	1_0.gif
170.008	1	4	0	4	0.306	4	1	4_0.gif
171.008	1	1	0	1	0.394	1	1	1_0.gif
172.008	1	3	0	3	0.418	3	1	3_0.gif
173.008	1	4	0	4	0.393	4	1	4_0.gif
174.008	1	2	0	6	0	2	n/a	2_0.gif
175.008	1	3	0	3	0.536	3	1	3_0.gif
176.008	1	1	2	6	0	2	n/a	1_2.gif
177.008	1	4	2	6	0	3	n/a	4_2.gif
178.01	1	1	2	1	0.307	1	1	1_2.gif
179.01	1	3	2	4	0.217	4	1	3_2.gif
180.01	1	4	2	1	0.005	1	1	4_2.gif
181.01	1	1	2	4	0.007	3	0	1_2.gif
182.01	1	2	2	3	0.33	4	0	2_2.gif
183.01	1	1	2	6	0	1	n/a	1_2.gif
184.01	1	4	2	6	0	2	n/a	4_2.gif
185.01	1	3	2	1	0.355	1	1	3_2.gif
186.01	1	4	2	4	0.044	4	1	4_2.gif
187.01	1	2	2	3	0.006	3	1	2_2.gif
188.01	1	1	2	2	0.692	4	0	1_2.gif
189.01	1	2	2	2	0.008	2	1	2_2.gif
190.01	1	3	2	1	0.006	1	1	3_2.gif
191.01	1	4	2	3	0.006	2	0	4_2.gif
192.01	1	3	0	3	0.826	3	1	3_0.gif
193.01	1	1	0	3	0.007	1	0	1_0.gif
194.01	1	3	0	1	0.006	3	0	3_0.gif
195.01	1	1	0	1	0.362	1	1	1_0.gif
196.01	1	4	0	4	0.278	4	1	4_0.gif
197.01	1	1	0	1	0.702	1	1	1_0.gif
198.01	1	4	0	4	0.622	4	1	4_0.gif
199.01	1	2	0	2	0.534	2	1	2_0.gif
200.01	1	4	0	4	0.555	4	1	4_0.gif
201.01	1	1	0	1	0.518	1	1	1_0.gif
202.01	1	4	0	4	0.565	4	1	4_0.gif
203.01	1	1	0	1	0.488	1	1	1_0.gif
204.01	1	2	0	2	0.53	2	1	2_0.gif
205.01	1	4	0	4	0.42	4	1	4_0.gif
206.01	1	1	0	1	0.401	1	1	1_0.gif
207.01	1	2	0	2	0.508	2	1	2_0.gif
208.01	1	3	2	6	0	1	n/a	3_2.gif
209.01	1	2	2	6	0	2	n/a	2_2.gif
210.011	1	3	2	3	0.242	3	1	3_2.gif
211.011	1	2	2	2	0.168	2	1	2_2.gif
212.011	1	3	2	3	0.195	3	1	3_2.gif
213.011	1	1	2	2	0.307	2	1	1_2.gif
214.011	1	4	2	3	0.147	3	1	4_2.gif
215.011	1	3	2	2	0.006	1	0	3_2.gif
216.011	1	4	2	1	0.005	4	0	4_2.gif
217.011	1	1	2	4	0.005	3	0	1_2.gif
218.011	1	4	2	3	0.006	4	0	4_2.gif
219.011	1	1	2	1	0.31	1	1	1_2.gif
220.011	1	2	2	4	0.275	4	1	2_2.gif
221.011	1	3	2	2	0.667	1	0	3_2.gif
222.011	1	4	2	3	0.368	2	0	4_2.gif
223.011	1	2	2	4	0.211	3	0	2_2.gif
224.011	1	1	0	1	0.974	1	1	1_0.gif
225.011	1	3	0	1	0.007	3	0	3_0.gif
226.011	1	4	0	3	0.007	4	0	4_0.gif
227.011	1	1	0	4	0.007	1	0	1_0.gif
228.011	1	3	0	3	0.424	3	1	3_0.gif
229.011	1	2	0	2	0.607	2	1	2_0.gif
230.011	1	1	0	1	0.497	1	1	1_0.gif
231.011	1	4	0	4	0.519	4	1	4_0.gif
232.011	1	1	0	1	0.461	1	1	1_0.gif
233.011	1	4	0	4	0.361	4	1	4_0.gif
234.011	1	1	0	1	0.367	1	1	1_0.gif
235.011	1	4	0	4	0.322	4	1	4_0.gif
236.011	1	3	0	3	0.581	3	1	3_0.gif
237.011	1	4	0	4	0.651	4	1	4_0.gif
238.011	1	2	0	2	0.56	2	1	2_0.gif
239.011	1	3	0	3	0.496	3	1	3_0.gif
240.011	1	4	2	6	0	2	n/a	4_2.gif
241.011	1	1	2	6	0	3	n/a	1_2.gif
242.011	1	4	2	4	0.196	4	1	4_2.gif
243.011	1	2	2	1	0.174	1	1	2_2.gif
244.011	1	3	2	6	0	4	n/a	3_2.gif
245.011	1	4	2	6	0	2	n/a	4_2.gif
246.011	1	3	2	3	0.739	3	1	3_2.gif
247.011	1	4	2	3	0.007	4	0	4_2.gif
248.011	1	3	2	3	0.343	3	1	3_2.gif
249.011	1	2	2	4	0.391	4	1	2_2.gif
250.011	1	4	2	3	0.268	3	1	4_2.gif
251.011	1	1	2	2	0.481	2	1	1_2.gif
252.011	1	4	2	4	0.268	4	1	4_2.gif
253.011	1	3	2	1	0.2	1	1	3_2.gif
254.011	1	1	2	3	0.007	4	0	1_2.gif
255.011	1	3	2	1	0.006	3	0	3_2.gif
