onset	duration	nback_display	trial_type	response	response_time	correct_response	correct	stim_file
0	1	1	0	6	0	1	n/a	1_0.gif
1	1	2	0	1	0.399	2	0	2_0.gif
2	1	1	0	2	0.013	1	0	1_0.gif
3	1	3	0	6	0	3	n/a	3_0.gif
4	1	1	0	1	0.52	1	1	1_0.gif
5	1	2	0	2	0.55	2	1	2_0.gif
6	1	4	0	4	0.506	4	1	4_0.gif
7	1	2	0	2	0.419	2	1	2_0.gif
8	1	3	0	3	0.438	3	1	3_0.gif
9	1	4	0	4	0.434	4	1	4_0.gif
10	1	3	0	3	0.448	3	1	3_0.gif
11	1	4	0	4	0.592	4	1	4_0.gif
12	1	3	0	3	0.535	3	1	3_0.gif
13	1	2	0	2	0.462	2	1	2_0.gif
14	1	4	0	4	0.426	4	1	4_0.gif
15	1	3	0	3	0.377	3	1	3_0.gif
16	1	1	2	6	0	4	n/a	1_2.gif
17	1	2	2	6	0	3	n/a	2_2.gif
18	1	4	2	1	0.347	1	1	4_2.gif
19	1	2	2	2	0.309	2	1	2_2.gif
20	1	3	2	4	0.409	4	1	3_2.gif
21	1	2	2	2	0.244	2	1	2_2.gif
22	1	3	2	3	0.189	3	1	3_2.gif
23	1	4	2	2	0.307	2	1	4_2.gif
24	1	1	2	3	0.707	3	1	1_2.gif
25	1	2	2	4	0.389	4	1	2_2.gif
26	1	4	2	1	0.251	1	1	4_2.gif
27	1	3	2	2	0.231	2	1	3_2.gif
28	1	2	2	4	0.35	4	1	2_2.gif
29	1	3	2	3	0.229	3	1	3_2.gif
30	1	4	2	2	0.219	2	1	4_2.gif
31	1	2	2	3	0.246	3	1	2_2.gif
32.001	1	3	0	4	0.237	3	0	3_0.gif
33.001	1	2	0	3	0.189	2	0	2_0.gif
34.001	1	1	0	1	0.437	1	1	1_0.gif
35.001	1	4	0	4	0.322	4	1	4_0.gif
36.001	1	2	0	2	0.341	2	1	2_0.gif
37.001	1	1	0	1	0.382	1	1	1_0.gif
38.001	1	4	0	4	0.284	4	1	4_0.gif
39.001	1	1	0	1	0.386	1	1	1_0.gif
40.001	1	3	0	3	0.403	3	1	3_0.gif
41.001	1	4	0	4	0.328	4	1	4_0.gif
42.001	1	2	0	2	0.412	2	1	2_0.gif
43.001	1	3	0	3	0.611	3	1	3_0.gif
44.001	1	4	0	4	0.342	4	1	4_0.gif
45.001	1	3	0	3	0.45	3	1	3_0.gif
46.001	1	2	0	2	0.433	2	1	2_0.gif
47.001	1	1	0	1	0.446	1	1	1_0.gif
48.001	1	2	2	6	0	2	n/a	2_2.gif
49.001	1	1	2	6	0	1	n/a	1_2.gif
50.002	1	4	2	2	0.282	2	1	4_2.gif
51.002	1	3	2	1	0.369	1	1	3_2.gif
52.002	1	1	2	4	0.26	4	1	1_2.gif
53.002	1	2	2	3	0.255	3	1	2_2.gif
54.002	1	1	2	1	0.543	1	1	1_2.gif
55.002	1	4	2	2	0.052	2	1	4_2.gif
56.002	1	2	2	1	0.165	1	1	2_2.gif
57.002	1	3	2	4	0.141	4	1	3_2.gif
58.002	1	1	2	2	0.013	2	1	1_2.gif
59.002	1	2	2	3	0.013	3	1	2_2.gif
60.002	1	1	2	1	0.131	1	1	1_2.gif
61.002	1	3	2	2	0.014	2	1	3_2.gif
62.002	1	1	2	1	0.013	1	1	1_2.gif
63.002	1	4	2	3	0.014	3	1	4_2.gif
64.002	1	2	0	1	0.014	2	0	2_0.gif
65.002	1	3	0	2	0.014	3	0	3_0.gif
66.002	1	2	0	2	0.391	2	1	2_0.gif
67.002	1	4	0	4	0.396	4	1	4_0.gif
68.002	1	3	0	3	0.297	3	1	3_0.gif
69.002	1	4	0	4	0.333	4	1	4_0.gif
70.002	1	2	0	2	0.333	2	1	2_0.gif
71.002	1	3	0	3	0.459	3	1	3_0.gif
72.002	1	1	0	1	0.416	1	1	1_0.gif
73.002	1	4	0	4	0.344	4	1	4_0.gif
74.002	1	3	0	3	0.437	3	1	3_0.gif
75.002	1	2	0	2	0.298	2	1	2_0.gif
76.002	1	3	0	3	0.341	3	1	3_0.gif
77.002	1	4	0	4	0.289	4	1	4_0.gif
78.002	1	2	0	2	0.347	2	1	2_0.gif
79.002	1	3	0	3	0.253	3	1	3_0.gif
80.003	1	1	2	6	0	2	n/a	1_2.gif
81.004	1	3	2	6	0	3	n/a	3_2.gif
82.004	1	1	2	1	0.173	1	1	1_2.gif
83.004	1	3	2	3	0.214	3	1	3_2.gif
84.004	1	4	2	1	0.249	1	1	4_2.gif
85.004	1	1	2	3	0.257	3	1	1_2.gif
86.004	1	4	2	4	0.209	4	1	4_2.gif
87.004	1	3	2	1	0.199	1	1	3_2.gif
88.004	1	2	2	4	0.148	4	1	2_2.gif
89.004	1	4	2	3	0.17	3	1	4_2.gif
90.004	1	1	2	2	0.185	2	1	1_2.gif
91.004	1	2	2	4	0.148	4	1	2_2.gif
92.004	1	4	2	1	0.122	1	1	4_2.gif
93.004	1	2	2	2	0.102	2	1	2_2.gif
94.004	1	3	2	4	0.056	4	1	3_2.gif
95.004	1	4	2	2	0.052	2	1	4_2.gif
96.004	1	3	0	3	0.067	3	1	3_0.gif
97.004	1	1	0	3	0.014	1	0	1_0.gif
98.004	1	3	0	3	0.36	3	1	3_0.gif
99.004	1	4	0	4	0.495	4	1	4_0.gif
100.004	1	1	0	1	0.405	1	1	1_0.gif
101.004	1	3	0	3	0.382	3	1	3_0.gif
102.004	1	4	0	4	0.285	4	1	4_0.gif
103.004	1	3	0	3	0.367	3	1	3_0.gif
104.004	1	4	0	4	0.407	4	1	4_0.gif
105.004	1	2	0	2	0.416	2	1	2_0.gif
106.004	1	4	0	4	0.406	4	1	4_0.gif
107.004	1	2	0	2	0.315	2	1	2_0.gif
108.004	1	3	0	3	0.376	3	1	3_0.gif
109.004	1	2	0	2	0.347	2	1	2_0.gif
110.004	1	4	0	4	0.337	4	1	4_0.gif
111.004	1	2	0	2	0.354	2	1	2_0.gif
112.006	1	4	2	6	0	4	n/a	4_2.gif
113.006	1	3	2	6	0	2	n/a	3_2.gif
114.01	1	4	2	4	0.23	4	1	4_2.gif
115.01	1	1	2	3	0.207	3	1	1_2.gif
116.01	1	2	2	4	0.231	4	1	2_2.gif
117.01	1	3	2	1	0.314	1	1	3_2.gif
118.01	1	4	2	2	0.209	2	1	4_2.gif
119.01	1	3	2	3	0.21	3	1	3_2.gif
120.01	1	2	2	4	0.188	4	1	2_2.gif
121.01	1	4	2	3	0.154	3	1	4_2.gif
122.01	1	1	2	2	0.096	2	1	1_2.gif
123.01	1	3	2	4	0.107	4	1	3_2.gif
124.01	1	1	2	1	0.082	1	1	1_2.gif
125.01	1	3	2	3	0.042	3	1	3_2.gif
126.01	1	4	2	1	0.014	1	1	4_2.gif
127.01	1	3	2	3	0.025	3	1	3_2.gif
128.01	1	1	0	1	0.159	1	1	1_0.gif
129.01	1	2	0	4	0.207	2	0	2_0.gif
130.01	1	3	0	3	0.423	3	1	3_0.gif
131.01	1	4	0	4	0.387	4	1	4_0.gif
132.01	1	2	0	2	0.381	2	1	2_0.gif
133.01	1	1	0	1	0.379	1	1	1_0.gif
134.01	1	3	0	3	0.34	3	1	3_0.gif
135.01	1	2	0	2	0.308	2	1	2_0.gif
136.01	1	4	0	4	0.322	4	1	4_0.gif
137.01	1	3	0	3	0.305	3	1	3_0.gif
138.01	1	1	0	1	0.437	1	1	1_0.gif
139.01	1	4	0	4	0.421	4	1	4_0.gif
140.01	1	3	0	3	0.38	3	1	3_0.gif
141.01	1	4	0	4	0.437	4	1	4_0.gif
142.01	1	3	0	3	0.31	3	1	3_0.gif
143.01	1	1	0	1	0.401	1	1	1_0.gif
144.011	1	2	2	2	0.414	3	0	2_2.gif
145.011	1	4	2	6	0	1	n/a	4_2.gif
146.011	1	1	2	2	0.331	2	1	1_2.gif
147.011	1	2	2	4	0.199	4	1	2_2.gif
148.011	1	4	2	1	0.187	1	1	4_2.gif
149.011	1	2	2	2	0.19	2	1	2_2.gif
150.011	1	4	2	4	0.083	4	1	4_2.gif
151.011	1	2	2	2	0.05	2	1	2_2.gif
152.011	1	3	2	4	0.052	4	1	3_2.gif
153.011	1	4	2	2	0.014	2	1	4_2.gif
154.011	1	3	2	3	0.073	3	1	3_2.gif
155.011	1	2	2	4	0.021	4	1	2_2.gif
156.011	1	4	2	3	0.027	3	1	4_2.gif
157.011	1	1	2	2	0.027	2	1	1_2.gif
158.011	1	4	2	4	0.129	4	1	4_2.gif
159.011	1	1	2	1	0.205	1	1	1_2.gif
160.012	1	4	0	4	0.08	4	1	4_0.gif
161.012	1	2	0	4	0.014	2	0	2_0.gif
162.012	1	3	0	3	0.329	3	1	3_0.gif
163.012	1	1	0	1	0.404	1	1	1_0.gif
164.012	1	3	0	3	0.354	3	1	3_0.gif
165.012	1	4	0	4	0.256	4	1	4_0.gif
166.012	1	2	0	2	0.265	2	1	2_0.gif
167.012	1	1	0	1	0.414	1	1	1_0.gif
168.012	1	2	0	2	0.415	2	1	2_0.gif
169.012	1	4	0	4	0.437	4	1	4_0.gif
170.012	1	1	0	1	0.45	1	1	1_0.gif
171.012	1	2	0	2	0.331	2	1	2_0.gif
172.012	1	3	0	3	0.421	3	1	3_0.gif
173.012	1	2	0	2	0.367	2	1	2_0.gif
174.012	1	4	0	4	0.418	4	1	4_0.gif
175.012	1	1	0	1	0.4	1	1	1_0.gif
176.013	1	4	2	6	0	4	n/a	4_2.gif
177.013	1	1	2	6	0	1	n/a	1_2.gif
178.013	1	3	2	4	0.22	4	1	3_2.gif
179.013	1	2	2	1	0.214	1	1	2_2.gif
180.013	1	3	2	3	0.215	3	1	3_2.gif
181.013	1	4	2	2	0.121	2	1	4_2.gif
182.013	1	1	2	3	0.116	3	1	1_2.gif
183.013	1	4	2	4	0.46	4	1	4_2.gif
184.013	1	2	2	1	0.188	1	1	2_2.gif
185.013	1	4	2	4	0.013	4	1	4_2.gif
186.013	1	2	2	2	0.135	2	1	2_2.gif
187.013	1	1	2	4	0.014	4	1	1_2.gif
188.013	1	2	2	2	0.014	2	1	2_2.gif
189.013	1	1	2	1	0.083	1	1	1_2.gif
190.013	1	3	2	4	0.181	2	0	3_2.gif
191.013	1	1	2	1	0.328	1	1	1_2.gif
192.014	1	2	0	2	0.437	2	1	2_0.gif
193.014	1	4	0	4	0.406	4	1	4_0.gif
194.014	1	2	0	2	0.353	2	1	2_0.gif
195.014	1	3	0	3	0.382	3	1	3_0.gif
196.014	1	4	0	4	0.375	4	1	4_0.gif
197.014	1	3	0	3	0.409	3	1	3_0.gif
198.014	1	4	0	4	0.389	4	1	4_0.gif
199.014	1	3	0	3	0.269	3	1	3_0.gif
200.014	1	2	0	4	0.279	2	0	2_0.gif
201.014	1	4	0	4	0.416	4	1	4_0.gif
202.014	1	3	0	3	0.398	3	1	3_0.gif
203.014	1	1	0	1	0.374	1	1	1_0.gif
204.014	1	2	0	2	0.379	2	1	2_0.gif
205.014	1	4	0	4	0.387	4	1	4_0.gif
206.014	1	2	0	2	0.412	2	1	2_0.gif
207.014	1	3	0	3	0.418	3	1	3_0.gif
208.014	1	2	2	2	0.467	2	1	2_2.gif
209.014	1	3	2	6	0	3	n/a	3_2.gif
210.014	1	4	2	2	0.164	2	1	4_2.gif
211.014	1	1	2	3	0.014	3	1	1_2.gif
212.014	1	2	2	1	0.356	4	0	2_2.gif
213.014	1	4	2	2	0.225	1	0	4_2.gif
214.014	1	3	2	6	0	2	n/a	3_2.gif
215.014	1	2	2	6	0	4	n/a	2_2.gif
216.014	1	3	2	3	0.609	3	1	3_2.gif
217.014	1	4	2	2	0.266	2	1	4_2.gif
218.014	1	2	2	3	0.279	3	1	2_2.gif
219.014	1	3	2	4	0.123	4	1	3_2.gif
220.014	1	2	2	6	0	2	n/a	2_2.gif
221.014	1	1	2	6	0	3	n/a	1_2.gif
222.014	1	4	2	6	0	2	n/a	4_2.gif
223.014	1	2	2	2	0.408	1	0	2_2.gif
224.015	1	1	0	1	0.824	1	1	1_0.gif
225.015	1	4	0	1	0.014	4	0	4_0.gif
226.015	1	1	0	1	0.524	1	1	1_0.gif
227.015	1	3	0	3	0.376	3	1	3_0.gif
228.015	1	4	0	4	0.285	4	1	4_0.gif
229.015	1	2	0	2	0.277	2	1	2_0.gif
230.015	1	3	0	3	0.317	3	1	3_0.gif
231.015	1	4	0	4	0.299	4	1	4_0.gif
232.015	1	3	0	3	0.44	3	1	3_0.gif
233.015	1	2	0	2	0.373	2	1	2_0.gif
234.015	1	1	0	1	0.466	1	1	1_0.gif
235.015	1	2	0	2	0.43	2	1	2_0.gif
236.015	1	1	0	1	0.43	1	1	1_0.gif
237.015	1	4	0	4	0.429	4	1	4_0.gif
238.015	1	3	0	3	0.377	3	1	3_0.gif
239.016	1	1	0	1	0.476	1	1	1_0.gif
240.016	1	2	2	6	0	3	n/a	2_2.gif
241.016	1	1	2	6	0	1	n/a	1_2.gif
242.016	1	4	2	2	0.263	2	1	4_2.gif
243.016	1	2	2	1	0.242	1	1	2_2.gif
244.016	1	3	2	4	0.128	4	1	3_2.gif
245.016	1	1	2	2	0.014	2	1	1_2.gif
246.016	1	2	2	3	0.178	3	1	2_2.gif
247.016	1	1	2	1	0.128	1	1	1_2.gif
248.016	1	3	2	2	0.07	2	1	3_2.gif
249.016	1	1	2	1	0.014	1	1	1_2.gif
250.016	1	4	2	3	0.08	3	1	4_2.gif
251.016	1	2	2	1	0.023	1	1	2_2.gif
252.016	1	3	2	4	0.059	4	1	3_2.gif
253.016	1	2	2	2	0.014	2	1	2_2.gif
254.016	1	4	2	3	0.013	3	1	4_2.gif
255.016	1	3	2	4	0.027	2	0	3_2.gif
