onset	duration	nback_display	trial_type	response	response_time	correct_response	correct	stim_file
0	1	1	0	1	0.642	1	1	1_0.gif
1	1	4	0	4	0.59	4	1	4_0.gif
2	1	2	0	2	0.51	2	1	2_0.gif
3	1	1	0	1	0.495	1	1	1_0.gif
4	1	4	0	4	0.295	4	1	4_0.gif
5	1	1	0	1	0.434	1	1	1_0.gif
6	1	2	0	2	0.426	2	1	2_0.gif
7	1	1	0	1	0.42	1	1	1_0.gif
8	1	3	0	3	0.446	3	1	3_0.gif
9	1	4	0	4	0.369	4	1	4_0.gif
10	1	3	0	3	0.399	3	1	3_0.gif
11	1	4	0	4	0.316	4	1	4_0.gif
12	1	1	0	1	0.479	1	1	1_0.gif
13	1	3	0	3	0.43	3	1	3_0.gif
14	1	1	0	1	0.407	1	1	1_0.gif
15	1	3	0	3	0.4	3	1	3_0.gif
16	1	4	2	4	0.462	1	0	4_2.gif
17	1	2	2	6	0	3	n/a	2_2.gif
18	1	1	2	4	0.976	4	1	1_2.gif
19	1	2	2	4	0.013	2	0	2_2.gif
20	1	1	2	2	0.682	1	0	1_2.gif
21	1	3	2	1	0.477	2	0	3_2.gif
22	1	1	2	2	0.496	1	0	1_2.gif
23	1	3	2	3	0.423	3	1	3_2.gif
24	1	2	2	1	0.471	1	1	2_2.gif
25	1	4	2	3	0.412	3	1	4_2.gif
26	1	2	2	2	0.678	2	1	2_2.gif
27	1	3	2	4	0.57	4	1	3_2.gif
28	1	1	2	2	0.461	2	1	1_2.gif
29	1	4	2	3	0.445	3	1	4_2.gif
30	1	1	2	1	0.363	1	1	1_2.gif
31	1	3	2	4	0.441	4	1	3_2.gif
32.001	1	1	0	1	0.772	1	1	1_0.gif
33.001	1	2	0	1	0.013	2	0	2_0.gif
34.001	1	4	0	4	0.398	4	1	4_0.gif
35.001	1	3	0	3	0.401	3	1	3_0.gif
36.001	1	1	0	1	0.381	1	1	1_0.gif
37.001	1	2	0	2	0.504	2	1	2_0.gif
38.001	1	3	0	3	0.416	3	1	3_0.gif
39.001	1	4	0	4	0.279	4	1	4_0.gif
40.001	1	1	0	1	0.428	1	1	1_0.gif
41.001	1	3	0	3	0.474	3	1	3_0.gif
42.001	1	4	0	4	0.357	4	1	4_0.gif
43.001	1	2	0	2	0.38	2	1	2_0.gif
44.001	1	3	0	3	0.372	3	1	3_0.gif
45.001	1	1	0	1	0.412	1	1	1_0.gif
46.001	1	3	0	3	0.41	3	1	3_0.gif
47.001	1	4	0	4	0.314	4	1	4_0.gif
48.001	1	3	2	6	0	3	n/a	3_2.gif
49.001	1	1	2	6	0	4	n/a	1_2.gif
50.001	1	3	2	3	0.37	3	1	3_2.gif
51.001	1	1	2	1	0.275	1	1	1_2.gif
52.001	1	2	2	3	0.386	3	1	2_2.gif
53.001	1	3	2	1	0.277	1	1	3_2.gif
54.001	1	4	2	2	0.304	2	1	4_2.gif
55.001	1	1	2	3	0.377	3	1	1_2.gif
56.001	1	4	2	4	0.277	4	1	4_2.gif
57.001	1	2	2	1	0.275	1	1	2_2.gif
58.001	1	4	2	4	0.278	4	1	4_2.gif
59.001	1	1	2	2	0.406	2	1	1_2.gif
60.001	1	4	2	1	0.324	4	0	4_2.gif
61.001	1	2	2	4	0.382	1	0	2_2.gif
62.001	1	1	2	2	0.435	4	0	1_2.gif
63.001	1	4	2	4	0.405	2	0	4_2.gif
64.002	1	1	0	1	0.612	1	1	1_0.gif
65.002	1	2	0	2	0.4	2	1	2_0.gif
66.002	1	1	0	1	0.487	1	1	1_0.gif
67.002	1	3	0	3	0.425	3	1	3_0.gif
68.002	1	4	0	4	0.368	4	1	4_0.gif
69.002	1	2	0	2	0.554	2	1	2_0.gif
70.002	1	4	0	4	0.387	4	1	4_0.gif
71.002	1	3	0	3	0.363	3	1	3_0.gif
72.002	1	1	0	1	0.41	1	1	1_0.gif
73.002	1	2	0	2	0.47	2	1	2_0.gif
74.002	1	4	0	4	0.407	4	1	4_0.gif
75.002	1	3	0	3	0.389	3	1	3_0.gif
76.002	1	4	0	4	0.359	4	1	4_0.gif
77.002	1	2	0	2	0.387	2	1	2_0.gif
78.002	1	1	0	1	0.423	1	1	1_0.gif
79.002	1	3	0	3	0.459	3	1	3_0.gif
80.002	1	4	2	6	0	1	n/a	4_2.gif
81.002	1	2	2	6	0	3	n/a	2_2.gif
82.002	1	4	2	4	0.82	4	1	4_2.gif
83.002	1	2	2	4	0.014	2	0	2_2.gif
84.002	1	1	2	2	0.331	4	0	1_2.gif
85.002	1	3	2	4	0.237	2	0	3_2.gif
86.002	1	4	2	2	0.261	1	0	4_2.gif
87.003	1	1	2	1	0.269	3	0	1_2.gif
88.003	1	2	2	3	0.338	4	0	2_2.gif
89.003	1	4	2	4	0.223	1	0	4_2.gif
90.003	1	1	2	1	0.326	2	0	1_2.gif
91.003	1	3	2	2	0.241	4	0	3_2.gif
92.003	1	4	2	4	0.24	1	0	4_2.gif
93.003	1	3	2	1	0.255	3	0	3_2.gif
94.003	1	1	2	3	0.268	4	0	1_2.gif
95.003	1	2	2	4	0.597	3	0	2_2.gif
96.003	1	1	0	1	0.5	1	1	1_0.gif
97.003	1	4	0	4	0.42	4	1	4_0.gif
98.003	1	2	0	2	0.421	2	1	2_0.gif
99.003	1	3	0	3	0.439	3	1	3_0.gif
100.003	1	4	0	4	0.437	4	1	4_0.gif
101.003	1	2	0	2	0.43	2	1	2_0.gif
102.003	1	3	0	3	0.402	3	1	3_0.gif
103.003	1	4	0	4	0.381	4	1	4_0.gif
104.003	1	2	0	2	0.388	2	1	2_0.gif
105.003	1	3	0	3	0.409	3	1	3_0.gif
106.003	1	1	0	1	0.408	1	1	1_0.gif
107.003	1	3	0	3	0.399	3	1	3_0.gif
108.003	1	2	0	2	0.415	2	1	2_0.gif
109.003	1	1	0	1	0.455	1	1	1_0.gif
110.003	1	2	0	2	0.451	2	1	2_0.gif
111.003	1	3	0	3	0.386	3	1	3_0.gif
112.004	1	1	2	6	0	2	n/a	1_2.gif
113.004	1	2	2	6	0	3	n/a	2_2.gif
114.004	1	4	2	1	0.439	1	1	4_2.gif
115.004	1	1	2	2	0.337	2	1	1_2.gif
116.004	1	4	2	4	0.284	4	1	4_2.gif
117.004	1	1	2	1	0.491	1	1	1_2.gif
118.004	1	3	2	4	0.595	4	1	3_2.gif
119.004	1	4	2	1	0.41	1	1	4_2.gif
120.004	1	2	2	3	0.451	3	1	2_2.gif
121.004	1	1	2	4	0.492	4	1	1_2.gif
122.004	1	3	2	2	0.446	2	1	3_2.gif
123.004	1	2	2	1	0.321	1	1	2_2.gif
124.004	1	1	2	3	0.369	3	1	1_2.gif
125.004	1	2	2	2	0.431	2	1	2_2.gif
126.004	1	4	2	1	0.41	1	1	4_2.gif
127.004	1	1	2	2	0.302	2	1	1_2.gif
128.005	1	2	0	4	0.483	2	0	2_0.gif
129.005	1	1	0	2	0.013	1	0	1_0.gif
130.005	1	4	0	4	0.419	4	1	4_0.gif
131.005	1	3	0	3	0.427	3	1	3_0.gif
132.005	1	2	0	2	0.434	2	1	2_0.gif
133.005	1	4	0	4	0.388	4	1	4_0.gif
134.005	1	2	0	2	0.458	2	1	2_0.gif
135.005	1	3	0	3	0.433	3	1	3_0.gif
136.005	1	2	0	2	0.45	2	1	2_0.gif
137.005	1	3	0	3	0.439	3	1	3_0.gif
138.005	1	4	0	4	0.378	4	1	4_0.gif
139.005	1	3	0	3	0.413	3	1	3_0.gif
140.005	1	4	0	4	0.363	4	1	4_0.gif
141.005	1	3	0	3	0.414	3	1	3_0.gif
142.005	1	1	0	1	0.514	1	1	1_0.gif
143.005	1	3	0	3	0.494	3	1	3_0.gif
144.005	1	2	2	6	0	1	n/a	2_2.gif
145.005	1	4	2	6	0	3	n/a	4_2.gif
146.005	1	1	2	2	0.648	2	1	1_2.gif
147.005	1	4	2	4	0.441	4	1	4_2.gif
148.005	1	3	2	1	0.465	1	1	3_2.gif
149.005	1	1	2	4	0.513	4	1	1_2.gif
150.005	1	4	2	3	0.407	3	1	4_2.gif
151.005	1	2	2	1	0.474	1	1	2_2.gif
152.005	1	4	2	4	0.384	4	1	4_2.gif
153.005	1	2	2	2	0.309	2	1	2_2.gif
154.005	1	3	2	4	0.321	4	1	3_2.gif
155.005	1	4	2	2	0.275	2	1	4_2.gif
156.005	1	2	2	3	0.281	3	1	2_2.gif
157.005	1	1	2	4	0.347	4	1	1_2.gif
158.005	1	2	2	2	0.344	2	1	2_2.gif
159.005	1	1	2	1	0.254	1	1	1_2.gif
160.006	1	4	0	4	0.628	4	1	4_0.gif
161.01	1	3	0	3	0.591	3	1	3_0.gif
162.01	1	2	0	2	0.473	2	1	2_0.gif
163.01	1	4	0	4	0.43	4	1	4_0.gif
164.01	1	3	0	3	0.413	3	1	3_0.gif
165.01	1	1	0	1	0.424	1	1	1_0.gif
166.01	1	2	0	2	0.481	2	1	2_0.gif
167.01	1	1	0	1	0.431	1	1	1_0.gif
168.01	1	3	0	3	0.487	3	1	3_0.gif
169.01	1	1	0	1	0.458	1	1	1_0.gif
170.01	1	2	0	2	0.391	2	1	2_0.gif
171.01	1	1	0	1	0.354	1	1	1_0.gif
172.01	1	4	0	4	0.358	4	1	4_0.gif
173.01	1	1	0	1	0.422	1	1	1_0.gif
174.01	1	4	0	4	0.368	4	1	4_0.gif
175.01	1	3	0	3	0.387	3	1	3_0.gif
176.011	1	4	2	6	0	4	n/a	4_2.gif
177.011	1	2	2	6	0	3	n/a	2_2.gif
178.011	1	4	2	4	0.384	4	1	4_2.gif
179.011	1	3	2	2	0.407	2	1	3_2.gif
180.011	1	4	2	4	0.36	4	1	4_2.gif
181.011	1	3	2	3	0.305	3	1	3_2.gif
182.011	1	4	2	4	0.395	4	1	4_2.gif
183.011	1	2	2	3	0.446	3	1	2_2.gif
184.011	1	4	2	4	0.433	4	1	4_2.gif
185.011	1	3	2	2	0.407	2	1	3_2.gif
186.011	1	1	2	4	0.46	4	1	1_2.gif
187.011	1	4	2	3	0.383	3	1	4_2.gif
188.011	1	2	2	1	0.51	1	1	2_2.gif
189.011	1	1	2	4	0.493	4	1	1_2.gif
190.011	1	4	2	2	0.367	2	1	4_2.gif
191.011	1	1	2	1	0.477	1	1	1_2.gif
192.011	1	2	0	2	0.812	2	1	2_0.gif
193.011	1	1	0	2	0.014	1	0	1_0.gif
194.011	1	3	0	3	0.535	3	1	3_0.gif
195.011	1	4	0	4	0.36	4	1	4_0.gif
196.011	1	3	0	3	0.363	3	1	3_0.gif
197.011	1	4	0	4	0.372	4	1	4_0.gif
198.013	1	1	0	1	0.485	1	1	1_0.gif
199.013	1	3	0	3	0.391	3	1	3_0.gif
200.013	1	1	0	1	0.407	1	1	1_0.gif
201.013	1	3	0	3	0.391	3	1	3_0.gif
202.013	1	4	0	4	0.367	4	1	4_0.gif
203.013	1	2	0	2	0.44	2	1	2_0.gif
204.013	1	1	0	1	0.449	1	1	1_0.gif
205.013	1	2	0	2	0.431	2	1	2_0.gif
206.013	1	1	0	1	0.57	1	1	1_0.gif
207.013	1	3	0	3	0.434	3	1	3_0.gif
208.014	1	1	2	6	0	1	n/a	1_2.gif
209.014	1	3	2	6	0	3	n/a	3_2.gif
210.014	1	2	2	1	0.344	1	1	2_2.gif
211.014	1	4	2	3	0.381	3	1	4_2.gif
212.014	1	2	2	2	0.519	2	1	2_2.gif
213.014	1	3	2	4	0.485	4	1	3_2.gif
214.014	1	1	2	2	0.43	2	1	1_2.gif
215.014	1	4	2	3	0.506	3	1	4_2.gif
216.014	1	1	2	1	0.482	1	1	1_2.gif
217.014	1	3	2	4	0.568	4	1	3_2.gif
218.014	1	1	2	1	0.766	1	1	1_2.gif
219.014	1	2	2	3	0.63	3	1	2_2.gif
220.014	1	4	2	1	0.563	1	1	4_2.gif
221.014	1	3	2	2	0.456	2	1	3_2.gif
222.014	1	1	2	4	0.449	4	1	1_2.gif
223.014	1	2	2	3	0.463	3	1	2_2.gif
224.014	1	3	0	3	0.67	3	1	3_0.gif
225.014	1	4	0	4	0.442	4	1	4_0.gif
226.014	1	1	0	1	0.454	1	1	1_0.gif
227.015	1	3	0	3	0.472	3	1	3_0.gif
228.015	1	4	0	4	0.469	4	1	4_0.gif
229.015	1	2	0	2	0.542	2	1	2_0.gif
230.015	1	3	0	3	0.393	3	1	3_0.gif
231.015	1	1	0	1	0.472	1	1	1_0.gif
232.015	1	3	0	3	0.473	3	1	3_0.gif
233.015	1	4	0	4	0.479	4	1	4_0.gif
234.015	1	3	0	3	0.409	3	1	3_0.gif
235.015	1	1	0	1	0.49	1	1	1_0.gif
236.015	1	3	0	3	0.408	3	1	3_0.gif
237.015	1	1	0	1	0.541	1	1	1_0.gif
238.015	1	2	0	2	0.495	2	1	2_0.gif
239.015	1	3	0	3	0.404	3	1	3_0.gif
240.015	1	4	2	6	0	2	n/a	4_2.gif
241.015	1	1	2	6	0	3	n/a	1_2.gif
242.015	1	4	2	4	0.402	4	1	4_2.gif
243.015	1	2	2	1	0.342	1	1	2_2.gif
244.015	1	4	2	4	0.305	4	1	4_2.gif
245.015	1	1	2	2	0.281	2	1	1_2.gif
246.015	1	4	2	4	0.279	4	1	4_2.gif
247.015	1	2	2	1	0.407	1	1	2_2.gif
248.015	1	1	2	4	0.304	4	1	1_2.gif
249.015	1	4	2	2	0.313	2	1	4_2.gif
250.018	1	1	2	1	0.303	1	1	1_2.gif
251.018	1	2	2	4	0.309	4	1	2_2.gif
252.018	1	1	2	1	0.243	1	1	1_2.gif
253.018	1	3	2	2	0.287	2	1	3_2.gif
254.018	1	4	2	1	0.292	1	1	4_2.gif
255.018	1	2	2	3	0.439	3	1	2_2.gif
