onset	duration	nback_display	trial_type	response	response_time	correct_response	correct	stim_file
0	1	2	0	3	0.797	2	0	2_0.gif
1	1	1	0	3	0.008	1	0	1_0.gif
2	1	2	0	3	0.349	2	0	2_0.gif
3	1	4	0	4	0.736	4	1	4_0.gif
4	1	3	0	4	0.008	3	0	3_0.gif
5	1	1	0	1	0.357	1	1	1_0.gif
6	1	3	0	2	0.337	3	0	3_0.gif
7	1	1	0	1	0.328	1	1	1_0.gif
8	1	3	0	2	0.305	3	0	3_0.gif
9	1	4	0	4	0.547	4	1	4_0.gif
10	1	1	0	1	0.4	1	1	1_0.gif
11	1	4	0	4	0.463	4	1	4_0.gif
12	1	1	0	1	0.345	1	1	1_0.gif
13	1	4	0	4	0.532	4	1	4_0.gif
14	1	1	0	1	0.432	1	1	1_0.gif
15	1	3	0	2	0.304	3	0	3_0.gif
16	1	1	2	6	0	1	n/a	1_2.gif
17	1	2	2	6	0	3	n/a	2_2.gif
18	1	1	2	1	0.294	1	1	1_2.gif
19	1	3	2	3	0.179	2	0	3_2.gif
20	1	2	2	1	0.177	1	1	2_2.gif
21	1	1	2	2	0.009	3	0	1_2.gif
22	1	3	2	3	0.011	2	0	3_2.gif
23	1	4	2	1	0.033	1	1	4_2.gif
24	1	1	2	2	0.086	3	0	1_2.gif
25	1	3	2	4	0.008	4	1	3_2.gif
26	1	4	2	1	0.017	1	1	4_2.gif
27	1	1	2	2	0.162	3	0	1_2.gif
28	1	3	2	4	0.177	4	1	3_2.gif
29	1	4	2	1	0.235	1	1	4_2.gif
30	1	1	2	2	0.158	3	0	1_2.gif
31	1	2	2	4	0.008	4	1	2_2.gif
32.001	1	4	0	1	0.166	4	0	4_0.gif
33.001	1	2	0	4	0.301	2	0	2_0.gif
34.001	1	3	0	3	0.008	3	1	3_0.gif
35.001	1	1	0	1	0.309	1	1	1_0.gif
36.001	1	4	0	4	0.514	4	1	4_0.gif
37.001	1	1	0	1	0.376	1	1	1_0.gif
38.001	1	3	0	2	0.346	3	0	3_0.gif
39.001	1	2	0	3	0.539	2	0	2_0.gif
40.001	1	3	0	2	0.349	3	0	3_0.gif
41.001	1	2	0	3	0.421	2	0	2_0.gif
42.001	1	4	0	4	0.548	4	1	4_0.gif
43.001	1	1	0	1	0.428	1	1	1_0.gif
44.001	1	4	0	4	0.423	4	1	4_0.gif
45.001	1	3	0	2	0.336	3	0	3_0.gif
46.001	1	2	0	3	0.372	2	0	2_0.gif
47.001	1	1	0	1	0.326	1	1	1_0.gif
48.001	1	2	2	6	0	2	n/a	2_2.gif
49.001	1	3	2	6	0	1	n/a	3_2.gif
50.001	1	4	2	3	0.279	2	0	4_2.gif
51.001	1	2	2	2	0.142	3	0	2_2.gif
52.001	1	3	2	4	0.008	4	1	3_2.gif
53.001	1	2	2	3	0.008	2	0	2_2.gif
54.001	1	1	2	2	0.008	3	0	1_2.gif
55.001	1	3	2	3	0.008	2	0	3_2.gif
56.001	1	4	2	2	0.645	1	0	4_2.gif
57.001	1	2	2	4	0.57	3	0	2_2.gif
58.001	1	1	2	3	0.579	4	0	1_2.gif
59.001	1	2	2	1	0.716	2	0	2_2.gif
60.001	1	1	2	6	0	1	n/a	1_2.gif
61.001	1	2	2	3	0.213	2	0	2_2.gif
62.001	1	4	2	6	0	1	n/a	4_2.gif
63.001	1	2	2	1	0.427	2	0	2_2.gif
64.001	1	3	0	3	0.014	3	1	3_0.gif
65.001	1	4	0	2	0.008	4	0	4_0.gif
66.001	1	1	0	4	0.008	1	0	1_0.gif
67.001	1	3	0	2	0.309	3	0	3_0.gif
68.001	1	4	0	4	0.58	4	1	4_0.gif
69.001	1	3	0	2	0.366	3	0	3_0.gif
70.001	1	4	0	4	0.554	4	1	4_0.gif
71.001	1	2	0	3	0.35	2	0	2_0.gif
72.001	1	3	0	2	0.368	3	0	3_0.gif
73.001	1	1	0	1	0.42	1	1	1_0.gif
74.001	1	4	0	4	0.534	4	1	4_0.gif
75.001	1	1	0	1	0.314	1	1	1_0.gif
76.001	1	2	0	3	0.422	2	0	2_0.gif
77.002	1	4	0	4	0.605	4	1	4_0.gif
78.002	1	3	0	2	0.493	3	0	3_0.gif
79.002	1	4	0	4	0.599	4	1	4_0.gif
80.003	1	1	2	6	0	3	n/a	1_2.gif
81.003	1	4	2	6	0	4	n/a	4_2.gif
82.003	1	1	2	1	0.221	1	1	1_2.gif
83.003	1	4	2	4	0.066	4	1	4_2.gif
84.003	1	1	2	1	0.19	1	1	1_2.gif
85.003	1	2	2	4	0.113	4	1	2_2.gif
86.003	1	3	2	1	0.305	1	1	3_2.gif
87.003	1	1	2	3	0.34	2	0	1_2.gif
88.003	1	2	2	2	0.4	3	0	2_2.gif
89.003	1	4	2	1	0.308	1	1	4_2.gif
90.003	1	1	2	3	0.186	2	0	1_2.gif
91.003	1	3	2	4	0.181	4	1	3_2.gif
92.003	1	1	2	1	0.123	1	1	1_2.gif
93.003	1	2	2	2	0.157	3	0	2_2.gif
94.003	1	4	2	1	0.061	1	1	4_2.gif
95.003	1	3	2	3	0.032	2	0	3_2.gif
96.003	1	1	0	4	0.008	1	0	1_0.gif
97.003	1	3	0	1	0.039	3	0	3_0.gif
98.003	1	4	0	2	0.008	4	0	4_0.gif
99.003	1	3	0	4	0.009	3	0	3_0.gif
100.003	1	4	0	4	0.572	4	1	4_0.gif
101.003	1	2	0	3	0.471	2	0	2_0.gif
102.003	1	4	0	4	0.521	4	1	4_0.gif
103.003	1	2	0	3	0.322	2	0	2_0.gif
104.003	1	4	0	4	0.374	4	1	4_0.gif
105.003	1	1	0	1	0.418	1	1	1_0.gif
106.003	1	4	0	4	0.421	4	1	4_0.gif
107.003	1	1	0	1	0.273	1	1	1_0.gif
108.003	1	3	0	2	0.361	3	0	3_0.gif
109.003	1	1	0	1	0.305	1	1	1_0.gif
110.003	1	3	0	2	0.305	3	0	3_0.gif
111.003	1	4	0	4	0.515	4	1	4_0.gif
112.003	1	3	2	6	0	3	n/a	3_2.gif
113.003	1	1	2	6	0	4	n/a	1_2.gif
114.004	1	3	2	2	0.215	3	0	3_2.gif
115.004	1	1	2	1	0.29	1	1	1_2.gif
116.004	1	4	2	2	0.33	3	0	4_2.gif
117.004	1	1	2	1	0.317	1	1	1_2.gif
118.004	1	3	2	4	0.253	4	1	3_2.gif
119.004	1	2	2	1	0.211	1	1	2_2.gif
120.004	1	3	2	2	0.216	3	0	3_2.gif
121.004	1	4	2	3	0.177	2	0	4_2.gif
122.004	1	1	2	2	0.188	3	0	1_2.gif
123.004	1	2	2	4	0.133	4	1	2_2.gif
124.004	1	3	2	1	0.143	1	1	3_2.gif
125.004	1	4	2	3	0.187	2	0	4_2.gif
126.004	1	3	2	2	0.128	3	0	3_2.gif
127.004	1	2	2	4	0.133	4	1	2_2.gif
128.004	1	4	0	2	0.203	4	0	4_0.gif
129.004	1	3	0	4	0.019	3	0	3_0.gif
130.004	1	2	0	3	0.428	2	0	2_0.gif
131.004	1	4	0	4	0.66	4	1	4_0.gif
132.004	1	1	0	1	0.414	1	1	1_0.gif
133.004	1	3	0	2	0.294	3	0	3_0.gif
134.004	1	4	0	4	0.532	4	1	4_0.gif
135.004	1	1	0	1	0.385	1	1	1_0.gif
136.004	1	2	0	3	0.303	2	0	2_0.gif
137.004	1	3	0	2	0.267	3	0	3_0.gif
138.004	1	4	0	4	0.504	4	1	4_0.gif
139.004	1	3	0	2	0.39	3	0	3_0.gif
140.004	1	1	0	1	0.365	1	1	1_0.gif
141.004	1	4	0	4	0.492	4	1	4_0.gif
142.004	1	3	0	2	0.327	3	0	3_0.gif
143.004	1	1	0	1	0.251	1	1	1_0.gif
144.004	1	4	2	6	0	3	n/a	4_2.gif
145.004	1	1	2	6	0	1	n/a	1_2.gif
146.004	1	2	2	4	0.407	4	1	2_2.gif
147.004	1	3	2	1	0.21	1	1	3_2.gif
148.004	1	1	2	3	0.162	2	0	1_2.gif
149.004	1	2	2	2	0.039	3	0	2_2.gif
150.004	1	1	2	1	0.008	1	1	1_2.gif
151.004	1	3	2	3	0.008	2	0	3_2.gif
152.004	1	4	2	2	0.706	1	0	4_2.gif
153.004	1	1	2	4	0.842	3	0	1_2.gif
154.004	1	4	2	4	0.008	4	1	4_2.gif
155.004	1	2	2	1	0.009	1	1	2_2.gif
156.004	1	1	2	3	0.184	4	0	1_2.gif
157.004	1	4	2	1	0.664	2	0	4_2.gif
158.004	1	2	2	4	0.441	1	0	2_2.gif
159.004	1	3	2	3	0.549	4	0	3_2.gif
160.005	1	4	0	4	0.675	4	1	4_0.gif
161.005	1	1	0	1	0.634	1	1	1_0.gif
162.005	1	4	0	4	0.539	4	1	4_0.gif
163.005	1	2	0	3	0.409	2	0	2_0.gif
164.005	1	3	0	2	0.364	3	0	3_0.gif
165.005	1	1	0	1	0.386	1	1	1_0.gif
166.005	1	2	0	3	0.341	2	0	2_0.gif
167.005	1	3	0	2	0.338	3	0	3_0.gif
168.005	1	4	0	4	0.43	4	1	4_0.gif
169.005	1	3	0	2	0.446	3	0	3_0.gif
170.005	1	1	0	1	0.421	1	1	1_0.gif
171.005	1	4	0	4	0.512	4	1	4_0.gif
172.005	1	1	0	1	0.396	1	1	1_0.gif
173.005	1	4	0	4	0.363	4	1	4_0.gif
174.005	1	1	0	1	0.338	1	1	1_0.gif
175.005	1	3	0	2	0.341	3	0	3_0.gif
176.005	1	1	2	6	0	1	n/a	1_2.gif
177.005	1	4	2	6	0	3	n/a	4_2.gif
178.005	1	1	2	1	0.214	1	1	1_2.gif
179.005	1	4	2	4	0.253	4	1	4_2.gif
180.005	1	1	2	1	0.332	1	1	1_2.gif
181.005	1	3	2	4	0.263	4	1	3_2.gif
182.005	1	1	2	1	0.362	1	1	1_2.gif
183.005	1	3	2	6	0	3	n/a	3_2.gif
184.005	1	2	2	2	0.536	1	0	2_2.gif
185.005	1	1	2	2	0.617	3	0	1_2.gif
186.005	1	2	2	3	0.232	2	0	2_2.gif
187.005	1	4	2	1	0.338	1	1	4_2.gif
188.005	1	3	2	3	0.231	2	0	3_2.gif
189.005	1	1	2	4	0.195	4	1	1_2.gif
190.005	1	3	2	2	0.167	3	0	3_2.gif
191.005	1	1	2	1	0.215	1	1	1_2.gif
192.006	1	3	0	2	0.628	3	0	3_0.gif
193.006	1	4	0	4	0.548	4	1	4_0.gif
194.006	1	1	0	1	0.436	1	1	1_0.gif
195.006	1	4	0	4	0.38	4	1	4_0.gif
196.006	1	1	0	1	0.331	1	1	1_0.gif
197.006	1	4	0	4	0.259	4	1	4_0.gif
198.006	1	1	0	1	0.303	1	1	1_0.gif
199.006	1	3	0	2	0.707	3	0	3_0.gif
200.006	1	1	0	1	0.448	1	1	1_0.gif
201.006	1	2	0	3	0.392	2	0	2_0.gif
202.006	1	1	0	1	0.286	1	1	1_0.gif
203.006	1	3	0	2	0.324	3	0	3_0.gif
204.006	1	2	0	3	0.39	2	0	2_0.gif
205.006	1	1	0	1	0.368	1	1	1_0.gif
206.006	1	3	0	2	0.275	3	0	3_0.gif
207.006	1	4	0	4	0.569	4	1	4_0.gif
208.006	1	1	2	6	0	3	n/a	1_2.gif
209.006	1	3	2	6	0	4	n/a	3_2.gif
210.006	1	4	2	1	0.223	1	1	4_2.gif
211.006	1	1	2	2	0.009	3	0	1_2.gif
212.006	1	3	2	4	0.104	4	1	3_2.gif
213.006	1	4	2	1	0.008	1	1	4_2.gif
214.006	1	1	2	2	0.008	3	0	1_2.gif
215.006	1	2	2	4	0.008	4	1	2_2.gif
216.006	1	4	2	1	0.035	1	1	4_2.gif
217.006	1	2	2	3	0.167	2	0	2_2.gif
218.006	1	3	2	4	0.279	4	1	3_2.gif
219.006	1	1	2	3	0.079	2	0	1_2.gif
220.006	1	4	2	2	0.008	3	0	4_2.gif
221.006	1	1	2	1	0.024	1	1	1_2.gif
222.006	1	3	2	4	0.009	4	1	3_2.gif
223.006	1	2	2	1	0.008	1	1	2_2.gif
224.007	1	3	0	2	0.008	3	0	3_0.gif
225.007	1	2	0	2	0.008	2	1	2_0.gif
226.007	1	4	0	4	0.647	4	1	4_0.gif
227.007	1	1	0	1	0.326	1	1	1_0.gif
228.007	1	4	0	4	0.474	4	1	4_0.gif
229.007	1	3	0	2	0.285	3	0	3_0.gif
230.007	1	2	0	3	0.422	2	0	2_0.gif
231.007	1	1	0	1	0.274	1	1	1_0.gif
232.007	1	2	0	3	0.472	2	0	2_0.gif
233.007	1	3	0	2	0.411	3	0	3_0.gif
234.007	1	4	0	4	0.439	4	1	4_0.gif
235.007	1	2	0	3	0.306	2	0	2_0.gif
236.007	1	3	0	2	0.291	3	0	3_0.gif
237.007	1	2	0	3	0.249	2	0	2_0.gif
238.007	1	1	0	1	0.306	1	1	1_0.gif
239.007	1	3	0	2	0.244	3	0	3_0.gif
240.007	1	4	2	6	0	1	n/a	4_2.gif
241.007	1	2	2	6	0	3	n/a	2_2.gif
242.007	1	1	2	4	0.346	4	1	1_2.gif
243.007	1	2	2	3	0.158	2	0	2_2.gif
244.007	1	1	2	1	0.03	1	1	1_2.gif
245.007	1	2	2	3	0.009	2	0	2_2.gif
246.007	1	4	2	1	0.038	1	1	4_2.gif
247.007	1	2	2	3	0.052	2	0	2_2.gif
248.007	1	3	2	4	0.008	4	1	3_2.gif
249.007	1	4	2	3	0.008	2	0	4_2.gif
250.007	1	1	2	2	0.009	3	0	1_2.gif
251.007	1	3	2	4	0.009	4	1	3_2.gif
252.007	1	4	2	1	0.01	1	1	4_2.gif
253.007	1	3	2	2	0.009	3	0	3_2.gif
254.007	1	4	2	2	0.175	4	0	4_2.gif
255.007	1	2	2	6	0	3	n/a	2_2.gif
