onset	duration	nback_display	trial_type	response	response_time	correct_response	correct	stim_file
0	1	3	0	3	0.824	3	1	3_0.gif
1	1	1	0	3	0.013	1	0	1_0.gif
2	1	4	0	4	0.518	4	1	4_0.gif
3	1	3	0	3	0.497	3	1	3_0.gif
4	1	2	0	2	0.485	2	1	2_0.gif
5	1	3	0	3	0.518	3	1	3_0.gif
6	1	4	0	4	0.45	4	1	4_0.gif
7	1	3	0	3	0.512	3	1	3_0.gif
8	1	1	0	1	0.613	1	1	1_0.gif
9	1	3	0	3	0.556	3	1	3_0.gif
10	1	2	0	2	0.603	2	1	2_0.gif
11	1	1	0	1	0.568	1	1	1_0.gif
12	1	2	0	2	0.537	2	1	2_0.gif
13	1	4	0	4	0.608	4	1	4_0.gif
14	1	3	0	3	0.409	3	1	3_0.gif
15	1	2	0	2	0.422	2	1	2_0.gif
16	1	4	2	6	0	3	n/a	4_2.gif
17	1	3	2	6	0	2	n/a	3_2.gif
18	1	1	2	4	0.3	4	1	1_2.gif
19	1	3	2	3	0.375	3	1	3_2.gif
20	1	1	2	1	0.306	1	1	1_2.gif
21	1	3	2	3	0.255	3	1	3_2.gif
22	1	2	2	1	0.36	1	1	2_2.gif
23	1	3	2	3	0.291	3	1	3_2.gif
24	1	1	2	2	0.262	2	1	1_2.gif
25	1	2	2	3	0.29	3	1	2_2.gif
26	1	3	2	1	0.329	1	1	3_2.gif
27	1	4	2	2	0.307	2	1	4_2.gif
28	1	2	2	3	0.298	3	1	2_2.gif
29	1	1	2	4	0.319	4	1	1_2.gif
30	1	2	2	2	0.308	2	1	2_2.gif
31	1	4	2	1	0.282	1	1	4_2.gif
32.001	1	1	0	2	0.444	1	0	1_0.gif
33.001	1	3	0	1	0.013	3	0	3_0.gif
34.001	1	2	0	2	0.515	2	1	2_0.gif
35.001	1	3	0	3	0.424	3	1	3_0.gif
36.001	1	1	0	1	0.497	1	1	1_0.gif
37.001	1	2	0	2	0.438	2	1	2_0.gif
38.001	1	3	0	3	0.435	3	1	3_0.gif
39.001	1	4	0	4	0.362	4	1	4_0.gif
40.001	1	2	0	2	0.386	2	1	2_0.gif
41.001	1	1	0	1	0.447	1	1	1_0.gif
42.001	1	2	0	2	0.452	2	1	2_0.gif
43.001	1	4	0	6	0	4	n/a	4_0.gif
44.001	1	3	0	3	0.423	3	1	3_0.gif
45.001	1	1	0	1	0.403	1	1	1_0.gif
46.001	1	3	0	3	0.465	3	1	3_0.gif
47.001	1	1	0	1	0.474	1	1	1_0.gif
48.002	1	3	2	6	0	3	n/a	3_2.gif
49.002	1	4	2	6	0	1	n/a	4_2.gif
50.002	1	3	2	3	0.504	3	1	3_2.gif
51.002	1	2	2	4	0.39	4	1	2_2.gif
52.002	1	4	2	3	0.366	3	1	4_2.gif
53.002	1	2	2	2	0.416	2	1	2_2.gif
54.002	1	3	2	4	0.398	4	1	3_2.gif
55.002	1	4	2	2	0.298	2	1	4_2.gif
56.002	1	3	2	3	0.27	3	1	3_2.gif
57.002	1	2	2	4	0.22	4	1	2_2.gif
58.002	1	3	2	3	0.261	3	1	3_2.gif
59.002	1	4	2	2	0.316	2	1	4_2.gif
60.002	1	3	2	3	0.299	3	1	3_2.gif
61.002	1	1	2	4	0.386	4	1	1_2.gif
62.002	1	2	2	3	0.316	3	1	2_2.gif
63.002	1	4	2	1	0.327	1	1	4_2.gif
64.006	1	2	0	2	0.871	2	1	2_0.gif
65.006	1	1	0	2	0.013	1	0	1_0.gif
66.006	1	2	0	2	0.435	2	1	2_0.gif
67.006	1	3	0	3	0.426	3	1	3_0.gif
68.006	1	4	0	4	0.421	4	1	4_0.gif
69.006	1	2	0	2	0.406	2	1	2_0.gif
70.006	1	1	0	1	0.362	1	1	1_0.gif
71.006	1	2	0	2	0.397	2	1	2_0.gif
72.006	1	4	0	4	0.502	4	1	4_0.gif
73.006	1	3	0	3	0.422	3	1	3_0.gif
74.006	1	1	0	1	0.477	1	1	1_0.gif
75.006	1	2	0	2	0.376	2	1	2_0.gif
76.006	1	4	0	4	0.371	4	1	4_0.gif
77.006	1	2	0	2	0.493	2	1	2_0.gif
78.006	1	1	0	1	0.478	1	1	1_0.gif
79.006	1	2	0	2	0.419	2	1	2_0.gif
80.006	1	4	2	6	0	1	n/a	4_2.gif
81.006	1	1	2	6	0	2	n/a	1_2.gif
82.006	1	4	2	4	0.273	4	1	4_2.gif
83.006	1	1	2	1	0.282	1	1	1_2.gif
84.006	1	3	2	4	0.363	4	1	3_2.gif
85.006	1	4	2	1	0.388	1	1	4_2.gif
86.006	1	3	2	3	0.53	3	1	3_2.gif
87.006	1	4	2	4	0.395	4	1	4_2.gif
88.006	1	1	2	3	0.431	3	1	1_2.gif
89.006	1	2	2	4	0.409	4	1	2_2.gif
90.006	1	4	2	1	0.341	1	1	4_2.gif
91.006	1	3	2	2	0.267	2	1	3_2.gif
92.006	1	2	2	4	0.318	4	1	2_2.gif
93.006	1	4	2	3	0.355	3	1	4_2.gif
94.006	1	1	2	2	0.357	2	1	1_2.gif
95.006	1	2	2	4	0.412	4	1	2_2.gif
96.007	1	4	0	4	0.728	4	1	4_0.gif
97.007	1	1	0	1	0.568	1	1	1_0.gif
98.007	1	2	0	2	0.388	2	1	2_0.gif
99.007	1	3	0	3	0.751	3	1	3_0.gif
100.007	1	1	0	1	0.922	1	1	1_0.gif
101.007	1	3	0	1	0.013	3	0	3_0.gif
102.007	1	2	0	2	0.459	2	1	2_0.gif
103.007	1	3	0	3	0.425	3	1	3_0.gif
104.007	1	2	0	2	0.383	2	1	2_0.gif
105.007	1	4	0	4	0.385	4	1	4_0.gif
106.007	1	2	0	2	0.434	2	1	2_0.gif
107.007	1	4	0	4	0.391	4	1	4_0.gif
108.007	1	1	0	1	0.457	1	1	1_0.gif
109.007	1	4	0	4	0.341	4	1	4_0.gif
110.007	1	2	0	2	0.416	2	1	2_0.gif
111.007	1	3	0	3	0.422	3	1	3_0.gif
112.007	1	2	2	6	0	2	n/a	2_2.gif
113.007	1	3	2	6	0	3	n/a	3_2.gif
114.007	1	4	2	2	0.305	2	1	4_2.gif
115.007	1	2	2	3	0.294	3	1	2_2.gif
116.007	1	4	2	4	0.399	4	1	4_2.gif
117.007	1	3	2	2	0.385	2	1	3_2.gif
118.007	1	1	2	4	0.331	4	1	1_2.gif
119.007	1	4	2	3	0.299	3	1	4_2.gif
120.007	1	3	2	1	0.331	1	1	3_2.gif
121.007	1	2	2	4	0.36	4	1	2_2.gif
122.007	1	3	2	3	0.592	3	1	3_2.gif
123.007	1	4	2	2	0.33	2	1	4_2.gif
124.007	1	3	2	3	0.296	3	1	3_2.gif
125.007	1	2	2	4	0.406	4	1	2_2.gif
126.007	1	1	2	3	0.412	3	1	1_2.gif
127.007	1	3	2	2	0.361	2	1	3_2.gif
128.008	1	1	0	1	0.646	1	1	1_0.gif
129.008	1	4	0	4	0.479	4	1	4_0.gif
130.008	1	1	0	1	0.503	1	1	1_0.gif
131.008	1	3	0	3	0.471	3	1	3_0.gif
132.008	1	1	0	1	0.591	1	1	1_0.gif
133.008	1	4	0	4	0.433	4	1	4_0.gif
134.008	1	1	0	1	0.369	1	1	1_0.gif
135.008	1	3	0	3	0.44	3	1	3_0.gif
136.008	1	1	0	1	0.527	1	1	1_0.gif
137.008	1	3	0	3	0.332	3	1	3_0.gif
138.008	1	4	0	4	0.401	4	1	4_0.gif
139.008	1	1	0	1	0.492	1	1	1_0.gif
140.008	1	2	0	2	0.434	2	1	2_0.gif
141.008	1	1	0	1	0.39	1	1	1_0.gif
142.008	1	2	0	2	0.451	2	1	2_0.gif
143.008	1	3	0	3	0.427	3	1	3_0.gif
144.009	1	1	2	6	0	2	n/a	1_2.gif
145.009	1	4	2	6	0	3	n/a	4_2.gif
146.009	1	3	2	1	0.268	1	1	3_2.gif
147.009	1	1	2	4	0.303	4	1	1_2.gif
148.009	1	4	2	3	0.319	3	1	4_2.gif
149.009	1	2	2	1	0.436	1	1	2_2.gif
150.009	1	4	2	4	0.399	4	1	4_2.gif
151.009	1	1	2	2	0.311	2	1	1_2.gif
152.009	1	2	2	4	0.355	4	1	2_2.gif
153.009	1	3	2	1	0.323	1	1	3_2.gif
154.009	1	1	2	2	0.319	2	1	1_2.gif
155.009	1	2	2	3	0.29	3	1	2_2.gif
156.009	1	1	2	1	0.299	1	1	1_2.gif
157.009	1	3	2	2	0.35	2	1	3_2.gif
158.009	1	1	2	1	0.391	1	1	1_2.gif
159.009	1	4	2	3	0.338	3	1	4_2.gif
160.009	1	3	0	3	0.631	3	1	3_0.gif
161.009	1	4	0	4	0.536	4	1	4_0.gif
162.009	1	1	0	1	0.406	1	1	1_0.gif
163.009	1	2	0	2	0.436	2	1	2_0.gif
164.009	1	4	0	4	0.463	4	1	4_0.gif
165.009	1	3	0	3	0.319	3	1	3_0.gif
166.009	1	4	0	4	0.582	4	1	4_0.gif
167.009	1	1	0	1	0.581	1	1	1_0.gif
168.009	1	4	0	4	0.41	4	1	4_0.gif
169.009	1	3	0	3	0.387	3	1	3_0.gif
170.009	1	2	0	2	0.521	2	1	2_0.gif
171.009	1	3	0	3	0.588	3	1	3_0.gif
172.009	1	4	0	4	0.466	4	1	4_0.gif
173.009	1	1	0	1	0.443	1	1	1_0.gif
174.009	1	2	0	2	0.555	2	1	2_0.gif
175.009	1	4	0	4	0.292	4	1	4_0.gif
176.01	1	2	2	6	0	2	n/a	2_2.gif
177.01	1	1	2	6	0	4	n/a	1_2.gif
178.01	1	2	2	2	0.387	2	1	2_2.gif
179.01	1	4	2	1	0.306	1	1	4_2.gif
180.01	1	2	2	2	0.27	2	1	2_2.gif
181.01	1	4	2	4	0.266	4	1	4_2.gif
182.01	1	2	2	2	0.286	2	1	2_2.gif
183.01	1	1	2	4	0.235	4	1	1_2.gif
184.01	1	3	2	2	0.073	2	1	3_2.gif
185.01	1	1	2	1	0.066	1	1	1_2.gif
186.01	1	4	2	3	0.28	3	1	4_2.gif
187.01	1	3	2	1	0.458	1	1	3_2.gif
188.01	1	2	2	4	0.376	4	1	2_2.gif
189.01	1	3	2	3	0.439	3	1	3_2.gif
190.01	1	4	2	2	0.481	2	1	4_2.gif
191.01	1	3	2	3	0.362	3	1	3_2.gif
192.01	1	1	0	1	0.619	1	1	1_0.gif
193.01	1	3	0	3	0.471	3	1	3_0.gif
194.01	1	2	0	2	0.545	2	1	2_0.gif
195.01	1	1	0	1	0.468	1	1	1_0.gif
196.01	1	2	0	2	0.427	2	1	2_0.gif
197.01	1	4	0	4	0.494	4	1	4_0.gif
198.01	1	3	0	3	0.437	3	1	3_0.gif
199.01	1	2	0	2	0.426	2	1	2_0.gif
200.01	1	4	0	4	0.396	4	1	4_0.gif
201.01	1	3	0	3	0.339	3	1	3_0.gif
202.01	1	1	0	1	0.512	1	1	1_0.gif
203.011	1	3	0	3	0.453	3	1	3_0.gif
204.011	1	1	0	1	0.644	1	1	1_0.gif
205.011	1	3	0	3	0.394	3	1	3_0.gif
206.011	1	2	0	2	0.449	2	1	2_0.gif
207.011	1	3	0	3	0.412	3	1	3_0.gif
208.011	1	1	2	6	0	2	n/a	1_2.gif
209.011	1	2	2	6	0	3	n/a	2_2.gif
210.011	1	3	2	1	0.279	1	1	3_2.gif
211.011	1	4	2	2	0.262	2	1	4_2.gif
212.011	1	2	2	3	0.348	3	1	2_2.gif
213.011	1	1	2	4	0.323	4	1	1_2.gif
214.011	1	2	2	2	0.26	2	1	2_2.gif
215.011	1	4	2	1	0.335	1	1	4_2.gif
216.011	1	1	2	2	0.342	2	1	1_2.gif
217.011	1	3	2	4	0.425	4	1	3_2.gif
218.011	1	2	2	1	0.345	1	1	2_2.gif
219.011	1	3	2	3	0.354	3	1	3_2.gif
220.011	1	1	2	2	0.397	2	1	1_2.gif
221.011	1	2	2	3	0.327	3	1	2_2.gif
222.011	1	3	2	1	0.256	1	1	3_2.gif
223.011	1	4	2	2	0.325	2	1	4_2.gif
224.012	1	2	0	2	0.619	2	1	2_0.gif
225.012	1	1	0	1	0.574	1	1	1_0.gif
226.012	1	2	0	2	0.468	2	1	2_0.gif
227.012	1	4	0	4	0.522	4	1	4_0.gif
228.012	1	3	0	3	0.467	3	1	3_0.gif
229.012	1	1	0	1	0.552	1	1	1_0.gif
230.012	1	3	0	3	0.629	3	1	3_0.gif
231.012	1	1	0	1	0.467	1	1	1_0.gif
232.012	1	3	0	3	0.354	3	1	3_0.gif
233.012	1	4	0	4	0.4	4	1	4_0.gif
234.012	1	3	0	3	0.46	3	1	3_0.gif
235.012	1	2	0	2	0.439	2	1	2_0.gif
236.012	1	4	0	4	0.421	4	1	4_0.gif
237.012	1	2	0	2	0.507	2	1	2_0.gif
238.012	1	3	0	3	0.476	3	1	3_0.gif
239.012	1	4	0	4	0.487	4	1	4_0.gif
240.012	1	3	2	6	0	3	n/a	3_2.gif
241.012	1	2	2	6	0	4	n/a	2_2.gif
242.012	1	3	2	3	0.314	3	1	3_2.gif
243.012	1	4	2	2	0.297	2	1	4_2.gif
244.012	1	3	2	3	0.335	3	1	3_2.gif
245.012	1	1	2	4	0.386	4	1	1_2.gif
246.012	1	2	2	3	0.331	3	1	2_2.gif
247.012	1	4	2	1	0.294	1	1	4_2.gif
248.012	1	2	2	2	0.272	2	1	2_2.gif
249.012	1	1	2	4	0.509	4	1	1_2.gif
250.012	1	2	2	2	0.446	2	1	2_2.gif
251.012	1	3	2	1	0.398	1	1	3_2.gif
252.012	1	4	2	2	0.341	2	1	4_2.gif
253.012	1	2	2	3	0.29	3	1	2_2.gif
254.012	1	1	2	4	0.371	4	1	1_2.gif
255.012	1	2	2	2	0.382	2	1	2_2.gif
