onset	duration	nback_display	trial_type	response	response_time	correct_response	correct	stim_file
0	1	3	0	3	0.708	3	1	3_0.gif
1	1	2	0	2	0.435	2	1	2_0.gif
2	1	3	0	3	0.478	3	1	3_0.gif
3	1	2	0	2	0.353	2	1	2_0.gif
4	1	3	0	3	0.427	3	1	3_0.gif
5	1	4	0	4	0.51	4	1	4_0.gif
6	1	2	0	2	0.389	2	1	2_0.gif
7	1	4	0	4	0.545	4	1	4_0.gif
8	1	1	0	1	0.471	1	1	1_0.gif
9	1	2	0	2	0.345	2	1	2_0.gif
10	1	1	0	1	0.333	1	1	1_0.gif
11	1	2	0	2	0.356	2	1	2_0.gif
12	1	1	0	1	0.345	1	1	1_0.gif
13	1	3	0	3	0.521	3	1	3_0.gif
14	1	2	0	2	0.409	2	1	2_0.gif
15	1	4	0	4	0.45	4	1	4_0.gif
16	1	3	2	3	0.58	2	0	3_2.gif
17	1	2	2	6	0	4	n/a	2_2.gif
18	1	4	2	3	0.368	3	1	4_2.gif
19	1	1	2	2	0.251	2	1	1_2.gif
20	1	4	2	4	0.27	4	1	4_2.gif
21	1	1	2	1	0.227	1	1	1_2.gif
22	1	2	2	4	0.249	4	1	2_2.gif
23	1	3	2	1	0.236	1	1	3_2.gif
24	1	4	2	2	0.265	2	1	4_2.gif
25	1	3	2	3	0.27	3	1	3_2.gif
26	1	4	2	4	0.254	4	1	4_2.gif
27	1	1	2	3	0.231	3	1	1_2.gif
28	1	2	2	4	0.254	4	1	2_2.gif
29	1	4	2	1	0.255	1	1	4_2.gif
30	1	1	2	2	0.269	2	1	1_2.gif
31	1	2	2	4	0.206	4	1	2_2.gif
32	1	3	0	3	0.598	3	1	3_0.gif
33	1	2	0	2	0.466	2	1	2_0.gif
34	1	3	0	3	0.453	3	1	3_0.gif
35	1	4	0	4	0.43	4	1	4_0.gif
36	1	3	0	3	0.418	3	1	3_0.gif
37	1	2	0	2	0.335	2	1	2_0.gif
38	1	3	0	3	0.342	3	1	3_0.gif
39	1	1	0	1	0.47	1	1	1_0.gif
40	1	2	0	2	0.462	2	1	2_0.gif
41	1	1	0	1	0.424	1	1	1_0.gif
42	1	3	0	3	0.456	3	1	3_0.gif
43	1	4	0	4	0.405	4	1	4_0.gif
44	1	3	0	3	0.506	3	1	3_0.gif
45	1	1	0	1	0.454	1	1	1_0.gif
46	1	2	0	2	0.627	2	1	2_0.gif
47	1	1	0	1	0.51	1	1	1_0.gif
48	1	4	2	6	0	2	n/a	4_2.gif
49	1	3	2	6	0	1	n/a	3_2.gif
50	1	2	2	4	0.215	4	1	2_2.gif
51	1	3	2	3	0.251	3	1	3_2.gif
52	1	1	2	2	0.196	2	1	1_2.gif
53	1	2	2	3	0.235	3	1	2_2.gif
54	1	4	2	1	0.224	1	1	4_2.gif
55	1	3	2	2	0.261	2	1	3_2.gif
56	1	2	2	4	0.27	4	1	2_2.gif
57	1	4	2	3	0.262	3	1	4_2.gif
58	1	1	2	2	0.298	2	1	1_2.gif
59	1	3	2	4	0.295	4	1	3_2.gif
60	1	2	2	1	0.281	1	1	2_2.gif
61	1	3	2	3	0.324	3	1	3_2.gif
62	1	2	2	2	0.406	2	1	2_2.gif
63	1	3	2	3	0.473	3	1	3_2.gif
64.001	1	1	0	1	0.941	1	1	1_0.gif
65.001	1	3	0	1	0.003	3	0	3_0.gif
66.001	1	4	0	4	0.513	4	1	4_0.gif
67.001	1	1	0	1	0.413	1	1	1_0.gif
68.001	1	2	0	2	0.366	2	1	2_0.gif
69.001	1	4	0	4	0.363	4	1	4_0.gif
70.001	1	2	0	2	0.384	2	1	2_0.gif
71.001	1	1	0	1	0.33	1	1	1_0.gif
72.001	1	3	0	3	0.395	3	1	3_0.gif
73.001	1	1	0	1	0.411	1	1	1_0.gif
74.001	1	2	0	2	0.363	2	1	2_0.gif
75.001	1	1	0	1	0.352	1	1	1_0.gif
76.001	1	2	0	2	0.335	2	1	2_0.gif
77.001	1	3	0	3	0.438	3	1	3_0.gif
78.001	1	1	0	1	0.348	1	1	1_0.gif
79.001	1	4	0	4	0.467	4	1	4_0.gif
80.001	1	1	2	6	0	1	n/a	1_2.gif
81.001	1	2	2	6	0	4	n/a	2_2.gif
82.001	1	3	2	1	0.202	1	1	3_2.gif
83.001	1	4	2	2	0.242	2	1	4_2.gif
84.001	1	1	2	3	0.318	3	1	1_2.gif
85.001	1	2	2	4	0.322	4	1	2_2.gif
86.001	1	1	2	1	0.268	1	1	1_2.gif
87.001	1	3	2	2	0.314	2	1	3_2.gif
88.001	1	1	2	1	0.28	1	1	1_2.gif
89.001	1	3	2	3	0.247	3	1	3_2.gif
90.001	1	1	2	1	0.25	1	1	1_2.gif
91.001	1	3	2	3	0.261	3	1	3_2.gif
92.001	1	4	2	1	0.318	1	1	4_2.gif
93.001	1	2	2	3	0.322	3	1	2_2.gif
94.001	1	3	2	4	0.24	4	1	3_2.gif
95.001	1	2	2	2	0.298	2	1	2_2.gif
96.001	1	4	0	3	0.275	4	0	4_0.gif
97.001	1	3	0	3	0.461	3	1	3_0.gif
98.001	1	4	0	4	0.43	4	1	4_0.gif
99.001	1	1	0	1	0.439	1	1	1_0.gif
100.001	1	3	0	3	0.484	3	1	3_0.gif
101.001	1	1	0	1	0.438	1	1	1_0.gif
102.001	1	3	0	3	0.381	3	1	3_0.gif
103.001	1	4	0	4	0.443	4	1	4_0.gif
104.001	1	2	0	2	0.425	2	1	2_0.gif
105.001	1	1	0	1	0.401	1	1	1_0.gif
106.001	1	2	0	2	0.454	2	1	2_0.gif
107.001	1	4	0	4	0.335	4	1	4_0.gif
108.001	1	2	0	2	0.417	2	1	2_0.gif
109.001	1	4	0	4	0.432	4	1	4_0.gif
110.001	1	1	0	1	0.387	1	1	1_0.gif
111.001	1	4	0	4	0.402	4	1	4_0.gif
112.001	1	2	2	6	0	1	n/a	2_2.gif
113.001	1	4	2	6	0	4	n/a	4_2.gif
114.001	1	2	2	2	0.112	2	1	2_2.gif
115.001	1	1	2	4	0.101	4	1	1_2.gif
116.001	1	2	2	2	0.193	2	1	2_2.gif
117.001	1	4	2	1	0.166	1	1	4_2.gif
118.001	1	3	2	2	0.274	2	1	3_2.gif
119.001	1	4	2	4	0.18	4	1	4_2.gif
120.001	1	1	2	3	0.161	3	1	1_2.gif
121.001	1	2	2	4	0.215	4	1	2_2.gif
122.001	1	3	2	1	0.142	1	1	3_2.gif
123.001	1	4	2	2	0.186	2	1	4_2.gif
124.001	1	1	2	3	0.223	3	1	1_2.gif
125.001	1	2	2	4	0.234	4	1	2_2.gif
126.001	1	1	2	1	0.317	1	1	1_2.gif
127.001	1	2	2	2	0.342	2	1	2_2.gif
128.002	1	3	0	1	0.391	3	0	3_0.gif
129.002	1	1	0	1	0.58	1	1	1_0.gif
130.002	1	3	0	3	0.451	3	1	3_0.gif
131.002	1	1	0	1	0.518	1	1	1_0.gif
132.002	1	4	0	4	0.486	4	1	4_0.gif
133.002	1	1	0	1	0.439	1	1	1_0.gif
134.002	1	4	0	4	0.444	4	1	4_0.gif
135.002	1	2	0	2	0.415	2	1	2_0.gif
136.002	1	1	0	1	0.398	1	1	1_0.gif
137.002	1	3	0	3	0.396	3	1	3_0.gif
138.002	1	2	0	2	0.432	2	1	2_0.gif
139.002	1	1	0	1	0.335	1	1	1_0.gif
140.002	1	3	0	3	0.389	3	1	3_0.gif
141.002	1	1	0	1	0.374	1	1	1_0.gif
142.002	1	4	0	4	0.407	4	1	4_0.gif
143.002	1	2	0	2	0.414	2	1	2_0.gif
144.002	1	1	2	6	0	4	n/a	1_2.gif
145.002	1	4	2	6	0	2	n/a	4_2.gif
146.002	1	2	2	1	0.206	1	1	2_2.gif
147.002	1	1	2	4	0.232	4	1	1_2.gif
148.002	1	2	2	2	0.237	2	1	2_2.gif
149.002	1	4	2	1	0.173	1	1	4_2.gif
150.002	1	2	2	2	0.213	2	1	2_2.gif
151.002	1	3	2	1	0.3	4	0	3_2.gif
152.002	1	4	2	4	0.203	2	0	4_2.gif
153.002	1	2	2	2	0.292	3	0	2_2.gif
154.002	1	4	2	3	0.223	4	0	4_2.gif
155.002	1	2	2	6	0	2	n/a	2_2.gif
156.002	1	4	2	4	0.493	4	1	4_2.gif
157.002	1	1	2	2	0.349	2	1	1_2.gif
158.002	1	2	2	1	0.442	4	0	2_2.gif
159.002	1	1	2	6	0	1	n/a	1_2.gif
160.002	1	3	0	3	0.744	3	1	3_0.gif
161.002	1	2	0	2	0.571	2	1	2_0.gif
162.002	1	3	0	3	0.52	3	1	3_0.gif
163.002	1	1	0	1	0.482	1	1	1_0.gif
164.002	1	4	0	4	0.402	4	1	4_0.gif
165.002	1	1	0	1	0.358	1	1	1_0.gif
166.002	1	2	0	2	0.389	2	1	2_0.gif
167.002	1	3	0	3	0.441	3	1	3_0.gif
168.002	1	4	0	4	0.442	4	1	4_0.gif
169.002	1	2	0	2	0.434	2	1	2_0.gif
170.002	1	4	0	4	0.505	4	1	4_0.gif
171.002	1	3	0	3	0.447	3	1	3_0.gif
172.002	1	4	0	4	0.514	4	1	4_0.gif
173.002	1	2	0	2	0.418	2	1	2_0.gif
174.002	1	3	0	3	0.575	3	1	3_0.gif
175.002	1	4	0	4	0.515	4	1	4_0.gif
176.002	1	1	2	6	0	3	n/a	1_2.gif
177.002	1	4	2	1	0.511	4	0	4_2.gif
178.002	1	2	2	1	0.589	1	1	2_2.gif
179.002	1	1	2	4	0.315	4	1	1_2.gif
180.002	1	2	2	2	0.341	2	1	2_2.gif
181.002	1	1	2	1	0.278	1	1	1_2.gif
182.002	1	4	2	2	0.25	2	1	4_2.gif
183.002	1	2	2	1	0.197	1	1	2_2.gif
184.002	1	1	2	4	0.16	4	1	1_2.gif
185.002	1	2	2	2	0.219	2	1	2_2.gif
186.002	1	1	2	1	0.324	1	1	1_2.gif
187.002	1	3	2	2	0.271	2	1	3_2.gif
188.002	1	2	2	3	0.268	1	0	2_2.gif
189.002	1	3	2	2	0.5	3	0	3_2.gif
190.002	1	2	2	3	0.462	2	0	2_2.gif
191.002	1	3	2	2	0.516	3	0	3_2.gif
192.003	1	4	0	4	0.575	4	1	4_0.gif
193.003	1	2	0	2	0.679	2	1	2_0.gif
194.003	1	4	0	4	0.558	4	1	4_0.gif
195.003	1	1	0	1	0.459	1	1	1_0.gif
196.003	1	2	0	2	0.487	2	1	2_0.gif
197.003	1	1	0	1	0.445	1	1	1_0.gif
198.003	1	2	0	2	0.405	2	1	2_0.gif
199.003	1	1	0	1	0.349	1	1	1_0.gif
200.003	1	3	0	3	0.431	3	1	3_0.gif
201.003	1	2	0	2	0.431	2	1	2_0.gif
202.003	1	4	0	4	0.383	4	1	4_0.gif
203.003	1	3	0	3	0.393	3	1	3_0.gif
204.003	1	2	0	2	0.393	2	1	2_0.gif
205.003	1	4	0	4	0.443	4	1	4_0.gif
206.003	1	1	0	1	0.398	1	1	1_0.gif
207.003	1	4	0	4	0.381	4	1	4_0.gif
208.003	1	1	2	6	0	1	n/a	1_2.gif
209.003	1	2	2	6	0	4	n/a	2_2.gif
210.003	1	3	2	1	0.118	1	1	3_2.gif
211.003	1	4	2	2	0.052	2	1	4_2.gif
212.003	1	3	2	3	0.115	3	1	3_2.gif
213.003	1	4	2	4	0.221	4	1	4_2.gif
214.003	1	1	2	3	0.199	3	1	1_2.gif
215.003	1	2	2	4	0.085	4	1	2_2.gif
216.003	1	4	2	1	0.144	1	1	4_2.gif
217.003	1	1	2	2	0.175	2	1	1_2.gif
218.003	1	2	2	4	0.18	4	1	2_2.gif
219.003	1	3	2	1	0.218	1	1	3_2.gif
220.003	1	2	2	2	0.23	2	1	2_2.gif
221.003	1	3	2	3	0.272	3	1	3_2.gif
222.003	1	4	2	2	0.381	2	1	4_2.gif
223.003	1	3	2	3	0.491	3	1	3_2.gif
224.003	1	2	0	2	0.682	2	1	2_0.gif
225.003	1	3	0	3	0.886	3	1	3_0.gif
226.003	1	1	0	3	0.003	1	0	1_0.gif
227.003	1	2	0	2	0.547	2	1	2_0.gif
228.003	1	1	0	1	0.431	1	1	1_0.gif
229.003	1	3	0	3	0.391	3	1	3_0.gif
230.003	1	4	0	4	0.436	4	1	4_0.gif
231.003	1	3	0	3	0.404	3	1	3_0.gif
232.003	1	1	0	1	0.434	1	1	1_0.gif
233.003	1	2	0	2	0.378	2	1	2_0.gif
234.003	1	1	0	1	0.425	1	1	1_0.gif
235.003	1	4	0	4	0.476	4	1	4_0.gif
236.003	1	3	0	3	0.44	3	1	3_0.gif
237.003	1	2	0	2	0.367	2	1	2_0.gif
238.003	1	3	0	3	0.305	3	1	3_0.gif
239.003	1	1	0	1	0.303	1	1	1_0.gif
240.003	1	2	2	6	0	3	n/a	2_2.gif
241.003	1	4	2	6	0	1	n/a	4_2.gif
242.003	1	3	2	2	0.261	2	1	3_2.gif
243.003	1	2	2	4	0.223	4	1	2_2.gif
244.003	1	4	2	3	0.284	3	1	4_2.gif
245.003	1	1	2	2	0.335	2	1	1_2.gif
246.003	1	3	2	4	0.215	4	1	3_2.gif
247.003	1	2	2	1	0.154	1	1	2_2.gif
248.003	1	3	2	3	0.125	3	1	3_2.gif
249.003	1	2	2	2	0.103	2	1	2_2.gif
250.003	1	3	2	3	0.122	3	1	3_2.gif
251.003	1	1	2	2	0.062	2	1	1_2.gif
252.003	1	3	2	3	0.003	3	1	3_2.gif
253.003	1	4	2	1	0.077	1	1	4_2.gif
254.003	1	1	2	3	0.074	3	1	1_2.gif
255.003	1	2	2	4	0.008	4	1	2_2.gif
