onset	duration	nback_display	trial_type	response	response_time	correct_response	correct	stim_file
0	1	1	0	1	0.5	1	1	1_0.gif
1	1	3	0	3	0.485	3	1	3_0.gif
2	1	2	0	2	0.375	2	1	2_0.gif
3	1	1	0	1	0.485	1	1	1_0.gif
4	1	4	0	4	0.572	4	1	4_0.gif
5	1	1	0	1	0.384	1	1	1_0.gif
6	1	2	0	2	0.501	2	1	2_0.gif
7	1	1	0	1	0.546	1	1	1_0.gif
8	1	3	0	3	0.467	3	1	3_0.gif
9	1	4	0	6	0	4	n/a	4_0.gif
10	1	3	0	3	0.524	3	1	3_0.gif
11	1	4	0	4	0.462	4	1	4_0.gif
12	1	3	0	3	0.392	3	1	3_0.gif
13	1	4	0	6	0	4	n/a	4_0.gif
14	1	3	0	3	0.409	3	1	3_0.gif
15	1	4	0	4	0.754	4	1	4_0.gif
16	1	2	2	6	0	3	n/a	2_2.gif
17.001	1	1	2	6	0	4	n/a	1_2.gif
18.001	1	4	2	2	0.227	2	1	4_2.gif
19.001	1	1	2	1	0.114	1	1	1_2.gif
20.001	1	3	2	4	0.013	4	1	3_2.gif
21.001	1	1	2	1	0.184	1	1	1_2.gif
22.001	1	3	2	3	0.119	3	1	3_2.gif
23.001	1	1	2	1	0.013	1	1	1_2.gif
24.001	1	4	2	3	0.013	3	1	4_2.gif
25.001	1	1	2	1	0.077	1	1	1_2.gif
26.001	1	3	2	4	0.146	4	1	3_2.gif
27.001	1	4	2	1	0.022	1	1	4_2.gif
28.001	1	1	2	3	0.013	3	1	1_2.gif
29.001	1	3	2	4	0.02	4	1	3_2.gif
30.001	1	1	2	1	0.066	1	1	1_2.gif
31.001	1	2	2	3	0.058	3	1	2_2.gif
32.001	1	4	0	1	0.11	4	0	4_0.gif
33.001	1	3	0	4	0.134	3	0	3_0.gif
34.001	1	4	0	4	0.343	4	1	4_0.gif
35.001	1	2	0	2	0.33	2	1	2_0.gif
36.001	1	1	0	1	0.384	1	1	1_0.gif
37.001	1	2	0	2	0.53	2	1	2_0.gif
38.001	1	1	0	1	0.589	1	1	1_0.gif
39.001	1	4	0	4	0.494	4	1	4_0.gif
40.001	1	1	0	1	0.635	1	1	1_0.gif
41.001	1	3	0	3	0.592	3	1	3_0.gif
42.001	1	4	0	4	0.498	4	1	4_0.gif
43.001	1	1	0	1	0.587	1	1	1_0.gif
44.001	1	2	0	2	0.525	2	1	2_0.gif
45.001	1	4	0	4	0.577	4	1	4_0.gif
46.001	1	3	0	3	0.476	3	1	3_0.gif
47.001	1	4	0	4	0.464	4	1	4_0.gif
48.002	1	2	2	6	0	3	n/a	2_2.gif
49.002	1	1	2	6	0	4	n/a	1_2.gif
50.002	1	3	2	2	0.174	2	1	3_2.gif
51.002	1	1	2	1	0.133	1	1	1_2.gif
52.002	1	3	2	3	0.014	3	1	3_2.gif
53.002	1	1	2	1	0.013	1	1	1_2.gif
54.002	1	4	2	3	0.013	3	1	4_2.gif
55.002	1	2	2	1	0.048	1	1	2_2.gif
56.002	1	4	2	4	0.013	4	1	4_2.gif
57.002	1	2	2	2	0.013	2	1	2_2.gif
58.002	1	1	2	4	0.013	4	1	1_2.gif
59.002	1	3	2	2	0.063	2	1	3_2.gif
60.002	1	1	2	1	0.021	1	1	1_2.gif
61.002	1	2	2	3	0.194	3	1	2_2.gif
62.002	1	1	2	1	0.196	1	1	1_2.gif
63.002	1	3	2	2	0.092	2	1	3_2.gif
64.002	1	2	0	1	0.123	2	0	2_0.gif
65.002	1	4	0	2	0.013	4	0	4_0.gif
66.002	1	2	0	4	0.014	2	0	2_0.gif
67.002	1	4	0	4	0.409	4	1	4_0.gif
68.002	1	3	0	3	0.486	3	1	3_0.gif
69.002	1	4	0	6	0	4	n/a	4_0.gif
70.002	1	1	0	1	0.481	1	1	1_0.gif
71.002	1	2	0	2	0.455	2	1	2_0.gif
72.002	1	4	0	4	0.391	4	1	4_0.gif
73.002	1	3	0	3	0.421	3	1	3_0.gif
74.002	1	4	0	4	0.38	4	1	4_0.gif
75.002	1	1	0	1	0.427	1	1	1_0.gif
76.002	1	4	0	4	0.394	4	1	4_0.gif
77.002	1	3	0	3	0.397	3	1	3_0.gif
78.002	1	1	0	1	0.406	1	1	1_0.gif
79.002	1	4	0	4	0.417	4	1	4_0.gif
80.003	1	2	2	6	0	1	n/a	2_2.gif
81.003	1	3	2	6	0	4	n/a	3_2.gif
82.003	1	2	2	2	0.113	2	1	2_2.gif
83.003	1	3	2	3	0.19	3	1	3_2.gif
84.003	1	1	2	2	0.179	2	1	1_2.gif
85.003	1	2	2	3	0.117	3	1	2_2.gif
86.003	1	1	2	1	0.239	1	1	1_2.gif
87.003	1	2	2	2	0.091	2	1	2_2.gif
88.003	1	3	2	1	0.23	1	1	3_2.gif
89.003	1	2	2	2	0.328	2	1	2_2.gif
90.003	1	4	2	2	0.013	3	0	4_2.gif
91.003	1	2	2	2	0.249	2	1	2_2.gif
92.003	1	1	2	4	0.286	4	1	1_2.gif
93.003	1	4	2	2	0.29	2	1	4_2.gif
94.003	1	2	2	4	0.31	1	0	2_2.gif
95.003	1	3	2	1	0.654	4	0	3_2.gif
96.003	1	4	0	4	0.6	4	1	4_0.gif
97.003	1	2	0	5	0.014	2	n/a	2_0.gif
98.003	1	3	0	2	0.014	3	0	3_0.gif
99.003	1	4	0	4	0.691	4	1	4_0.gif
100.003	1	3	0	4	0.014	3	0	3_0.gif
101.003	1	2	0	2	0.526	2	1	2_0.gif
102.003	1	3	0	3	0.446	3	1	3_0.gif
103.003	1	1	0	1	0.501	1	1	1_0.gif
104.003	1	4	0	4	0.583	4	1	4_0.gif
105.003	1	2	0	2	0.467	2	1	2_0.gif
106.003	1	1	0	1	0.575	1	1	1_0.gif
107.003	1	3	0	3	0.625	3	1	3_0.gif
108.003	1	1	0	1	0.613	1	1	1_0.gif
109.003	1	2	0	2	0.653	2	1	2_0.gif
110.003	1	4	0	4	0.463	4	1	4_0.gif
111.003	1	2	0	2	0.571	2	1	2_0.gif
112.004	1	3	2	6	0	4	n/a	3_2.gif
113.004	1	2	2	6	0	2	n/a	2_2.gif
114.004	1	3	2	3	0.509	3	1	3_2.gif
115.004	1	4	2	2	0.264	2	1	4_2.gif
116.004	1	3	2	3	0.05	3	1	3_2.gif
117.004	1	4	2	4	0.996	4	1	4_2.gif
118.006	1	1	2	4	0.013	3	0	1_2.gif
119.006	1	3	2	6	0	4	n/a	3_2.gif
120.006	1	4	2	1	0.431	1	1	4_2.gif
121.006	1	1	2	3	0.124	3	1	1_2.gif
122.006	1	3	2	4	0.099	4	1	3_2.gif
123.006	1	2	2	1	0.096	1	1	2_2.gif
124.006	1	1	2	3	0.142	3	1	1_2.gif
125.006	1	2	2	2	0.048	2	1	2_2.gif
126.006	1	1	2	1	0.041	1	1	1_2.gif
127.006	1	2	2	2	0.032	2	1	2_2.gif
128.006	1	1	0	1	0.014	1	1	1_0.gif
129.006	1	3	0	1	0.014	3	0	3_0.gif
130.006	1	1	0	1	0.387	1	1	1_0.gif
131.006	1	3	0	3	0.368	3	1	3_0.gif
132.006	1	2	0	2	0.397	2	1	2_0.gif
133.006	1	3	0	3	0.395	3	1	3_0.gif
134.006	1	1	0	1	0.376	1	1	1_0.gif
135.006	1	3	0	3	0.456	3	1	3_0.gif
136.006	1	2	0	2	0.368	2	1	2_0.gif
137.006	1	3	0	3	0.38	3	1	3_0.gif
138.006	1	2	0	2	0.334	2	1	2_0.gif
139.006	1	3	0	3	0.33	3	1	3_0.gif
140.006	1	1	0	1	0.356	1	1	1_0.gif
141.006	1	2	0	2	0.306	2	1	2_0.gif
142.006	1	3	0	3	0.384	3	1	3_0.gif
143.006	1	4	0	4	0.585	4	1	4_0.gif
144.007	1	3	2	6	0	3	n/a	3_2.gif
145.007	1	4	2	6	0	4	n/a	4_2.gif
146.007	1	1	2	3	0.875	3	1	1_2.gif
147.007	1	3	2	3	0.013	4	0	3_2.gif
148.007	1	2	2	4	0.013	1	0	2_2.gif
149.007	1	4	2	1	0.114	3	0	4_2.gif
150.007	1	1	2	3	0.028	2	0	1_2.gif
151.007	1	2	2	2	0.013	4	0	2_2.gif
152.007	1	4	2	4	0.013	1	0	4_2.gif
153.007	1	2	2	1	0.015	2	0	2_2.gif
154.007	1	4	2	2	0.013	4	0	4_2.gif
155.007	1	2	2	4	0.017	2	0	2_2.gif
156.007	1	3	2	2	0.013	4	0	3_2.gif
157.007	1	4	2	4	0.068	2	0	4_2.gif
158.007	1	3	2	3	0.161	3	1	3_2.gif
159.007	1	4	2	4	0.238	4	1	4_2.gif
160.007	1	2	0	3	0.359	2	0	2_0.gif
161.007	1	4	0	2	0.014	4	0	4_0.gif
162.007	1	1	0	1	0.512	1	1	1_0.gif
163.007	1	2	0	2	0.468	2	1	2_0.gif
164.007	1	1	0	1	0.531	1	1	1_0.gif
165.007	1	2	0	2	0.479	2	1	2_0.gif
166.007	1	4	0	4	0.548	4	1	4_0.gif
167.007	1	2	0	2	0.436	2	1	2_0.gif
168.007	1	1	0	1	0.396	1	1	1_0.gif
169.007	1	2	0	2	0.395	2	1	2_0.gif
170.007	1	4	0	4	0.707	4	1	4_0.gif
171.007	1	3	0	3	0.414	3	1	3_0.gif
172.007	1	1	0	1	0.394	1	1	1_0.gif
173.007	1	2	0	2	0.365	2	1	2_0.gif
174.007	1	1	0	1	0.403	1	1	1_0.gif
175.007	1	2	0	2	0.369	2	1	2_0.gif
176.008	1	3	2	6	0	1	n/a	3_2.gif
177.008	1	2	2	6	0	2	n/a	2_2.gif
178.008	1	1	2	3	0.05	3	1	1_2.gif
179.008	1	4	2	2	0.018	2	1	4_2.gif
180.008	1	1	2	1	0.014	1	1	1_2.gif
181.008	1	2	2	6	0	4	n/a	2_2.gif
182.008	1	3	2	4	0.534	1	0	3_2.gif
183.008	1	4	2	6	0	2	n/a	4_2.gif
184.008	1	2	2	6	0	3	n/a	2_2.gif
185.008	1	4	2	4	0.494	4	1	4_2.gif
186.008	1	3	2	2	0.197	2	1	3_2.gif
187.008	1	4	2	4	0.229	4	1	4_2.gif
188.008	1	2	2	3	0.031	3	1	2_2.gif
189.008	1	4	2	4	0.013	4	1	4_2.gif
190.008	1	2	2	2	0.015	2	1	2_2.gif
191.008	1	4	2	4	0.018	4	1	4_2.gif
192.008	1	2	0	2	0.014	2	1	2_0.gif
193.008	1	1	0	2	0.014	1	0	1_0.gif
194.008	1	3	0	3	0.426	3	1	3_0.gif
195.008	1	2	0	2	0.364	2	1	2_0.gif
196.009	1	1	0	1	0.379	1	1	1_0.gif
197.009	1	4	0	4	0.505	4	1	4_0.gif
198.009	1	1	0	1	0.432	1	1	1_0.gif
199.009	1	2	0	2	0.351	2	1	2_0.gif
200.009	1	1	0	1	0.385	1	1	1_0.gif
201.009	1	3	0	3	0.57	3	1	3_0.gif
202.009	1	4	0	4	0.479	4	1	4_0.gif
203.009	1	3	0	3	0.437	3	1	3_0.gif
204.009	1	4	0	4	0.407	4	1	4_0.gif
205.009	1	3	0	3	0.34	3	1	3_0.gif
206.009	1	4	0	4	0.399	4	1	4_0.gif
207.009	1	3	0	3	0.254	3	1	3_0.gif
208.009	1	4	2	6	0	4	n/a	4_2.gif
209.009	1	2	2	6	0	3	n/a	2_2.gif
210.009	1	1	2	4	0.208	4	1	1_2.gif
211.009	1	4	2	2	0.014	2	1	4_2.gif
212.009	1	1	2	1	0.014	1	1	1_2.gif
213.009	1	3	2	4	0.013	4	1	3_2.gif
214.009	1	1	2	1	0.103	1	1	1_2.gif
215.009	1	3	2	3	0.042	3	1	3_2.gif
216.009	1	1	2	1	0.12	1	1	1_2.gif
217.009	1	4	2	3	0.124	3	1	4_2.gif
218.009	1	1	2	1	0.2	1	1	1_2.gif
219.009	1	3	2	4	0.229	4	1	3_2.gif
220.009	1	4	2	1	0.186	1	1	4_2.gif
221.009	1	1	2	3	0.128	3	1	1_2.gif
222.009	1	3	2	4	0.132	4	1	3_2.gif
223.009	1	1	2	1	0.043	1	1	1_2.gif
224.01	1	2	0	3	0.16	2	0	2_0.gif
225.01	1	4	0	4	0.448	4	1	4_0.gif
226.01	1	3	0	3	0.415	3	1	3_0.gif
227.01	1	4	0	4	0.493	4	1	4_0.gif
228.01	1	2	0	2	0.495	2	1	2_0.gif
229.01	1	1	0	1	0.452	1	1	1_0.gif
230.01	1	2	0	2	0.462	2	1	2_0.gif
231.01	1	1	0	1	0.412	1	1	1_0.gif
232.01	1	4	0	4	0.516	4	1	4_0.gif
233.01	1	1	0	1	0.585	1	1	1_0.gif
234.01	1	3	0	1	0.013	3	0	3_0.gif
235.01	1	4	0	4	0.782	4	1	4_0.gif
236.01	1	1	0	4	0.014	1	0	1_0.gif
237.01	1	2	0	2	0.456	2	1	2_0.gif
238.01	1	4	0	4	0.441	4	1	4_0.gif
239.01	1	3	0	3	0.401	3	1	3_0.gif
240.01	1	4	2	6	0	4	n/a	4_2.gif
241.01	1	2	2	6	0	3	n/a	2_2.gif
242.01	1	1	2	4	0.253	4	1	1_2.gif
243.01	1	3	2	2	0.014	2	1	3_2.gif
244.01	1	1	2	1	0.197	1	1	1_2.gif
245.01	1	3	2	3	0.025	3	1	3_2.gif
246.01	1	1	2	6	0	1	n/a	1_2.gif
247.01	1	4	2	6	0	3	n/a	4_2.gif
248.01	1	2	2	1	0.479	1	1	2_2.gif
249.01	1	4	2	4	0.153	4	1	4_2.gif
250.01	1	2	2	2	0.014	2	1	2_2.gif
251.01	1	1	2	4	0.014	4	1	1_2.gif
252.01	1	3	2	2	0.014	2	1	3_2.gif
253.01	1	1	2	1	0.321	1	1	1_2.gif
254.01	1	2	2	3	0.117	3	1	2_2.gif
255.01	1	1	2	1	0.052	1	1	1_2.gif
