onset	duration	nback_display	trial_type	response	response_time	correct_response	correct	stim_file
0	1	4	0	6	0	4	n/a	4_0.gif
1	1	1	0	4	0.126	1	0	1_0.gif
2	1	4	0	1	0.101	4	0	4_0.gif
3	1	1	0	4	0.006	1	0	1_0.gif
4	1	4	0	1	0.006	4	0	4_0.gif
5	1	2	0	4	0.005	2	0	2_0.gif
6	1	4	0	2	0.005	4	0	4_0.gif
7	1	1	0	1	0.467	1	1	1_0.gif
8	1	2	0	2	0.512	2	1	2_0.gif
9	1	3	0	3	0.542	3	1	3_0.gif
10	1	2	0	2	0.472	2	1	2_0.gif
11	1	3	0	3	0.512	3	1	3_0.gif
12	1	2	0	2	0.518	2	1	2_0.gif
13	1	3	0	3	0.489	3	1	3_0.gif
14	1	1	0	1	0.434	1	1	1_0.gif
15	1	4	0	4	0.516	4	1	4_0.gif
16	1	3	2	6	0	1	n/a	3_2.gif
17	1	4	2	6	0	4	n/a	4_2.gif
18	1	1	2	3	0.239	3	1	1_2.gif
19	1	2	2	4	0.18	4	1	2_2.gif
20	1	3	2	1	0.068	1	1	3_2.gif
21	1	2	2	2	0.198	2	1	2_2.gif
22	1	4	2	3	0.216	3	1	4_2.gif
23	1	2	2	2	0.179	2	1	2_2.gif
24	1	3	2	4	0.121	4	1	3_2.gif
25	1	2	2	2	0.033	2	1	2_2.gif
26	1	4	2	3	0.078	3	1	4_2.gif
27	1	1	2	2	0.012	2	1	1_2.gif
28	1	3	2	1	0.076	4	0	3_2.gif
29	1	2	2	3	0.303	1	0	2_2.gif
30	1	1	2	6	0	3	n/a	1_2.gif
31	1	4	2	1	0.777	2	0	4_2.gif
32	1	1	0	1	0.007	1	1	1_0.gif
33	1	3	0	3	0.535	3	1	3_0.gif
34	1	1	0	1	0.357	1	1	1_0.gif
35	1	4	0	4	0.406	4	1	4_0.gif
36	1	3	0	3	0.353	3	1	3_0.gif
37	1	4	0	4	0.385	4	1	4_0.gif
38	1	2	0	2	0.421	2	1	2_0.gif
39	1	3	0	3	0.402	3	1	3_0.gif
40	1	2	0	2	0.407	2	1	2_0.gif
41	1	1	0	1	0.347	1	1	1_0.gif
42	1	4	0	4	0.397	4	1	4_0.gif
43	1	2	0	2	0.405	2	1	2_0.gif
44	1	3	0	3	0.478	3	1	3_0.gif
45	1	4	0	4	0.542	4	1	4_0.gif
46	1	2	0	2	0.52	2	1	2_0.gif
47	1	4	0	4	0.515	4	1	4_0.gif
48	1	1	2	6	0	2	n/a	1_2.gif
49	1	2	2	6	0	4	n/a	2_2.gif
50	1	4	2	1	0.106	1	1	4_2.gif
51	1	1	2	2	0.066	2	1	1_2.gif
52	1	4	2	4	0.007	4	1	4_2.gif
53	1	3	2	1	0.034	1	1	3_2.gif
54	1	1	2	4	0.051	4	1	1_2.gif
55	1	3	2	3	0.014	3	1	3_2.gif
56	1	1	2	1	0.006	1	1	1_2.gif
57	1	3	2	3	0.006	3	1	3_2.gif
58	1	1	2	1	0.007	1	1	1_2.gif
59	1	4	2	3	0.026	3	1	4_2.gif
60	1	1	2	1	0.057	1	1	1_2.gif
61	1	4	2	4	0.057	4	1	4_2.gif
62	1	1	2	1	0.006	1	1	1_2.gif
63	1	4	2	4	0.006	4	1	4_2.gif
64	1	2	0	1	0.007	2	0	2_0.gif
65	1	1	0	2	0.006	1	0	1_0.gif
66	1	3	0	3	0.152	3	1	3_0.gif
67	1	1	0	3	0.007	1	0	1_0.gif
68	1	3	0	3	0.48	3	1	3_0.gif
69	1	2	0	2	0.425	2	1	2_0.gif
70	1	1	0	1	0.424	1	1	1_0.gif
71	1	4	0	4	0.422	4	1	4_0.gif
72	1	1	0	1	0.311	1	1	1_0.gif
73	1	3	0	3	0.402	3	1	3_0.gif
74	1	2	0	2	0.463	2	1	2_0.gif
75	1	3	0	3	0.439	3	1	3_0.gif
76	1	4	0	4	0.452	4	1	4_0.gif
77	1	2	0	2	0.396	2	1	2_0.gif
78	1	4	0	4	0.457	4	1	4_0.gif
79	1	1	0	1	0.439	1	1	1_0.gif
80.001	1	2	2	6	0	4	n/a	2_2.gif
81.001	1	4	2	6	0	1	n/a	4_2.gif
82.001	1	2	2	2	0.263	2	1	2_2.gif
83.001	1	4	2	4	0.141	4	1	4_2.gif
84.001	1	1	2	2	0.163	2	1	1_2.gif
85.001	1	3	2	4	0.021	4	1	3_2.gif
86.001	1	4	2	1	0.005	1	1	4_2.gif
87.001	1	3	2	3	0.005	3	1	3_2.gif
88.001	1	2	2	4	0.007	4	1	2_2.gif
89.001	1	4	2	3	0.005	3	1	4_2.gif
90.001	1	2	2	2	0.005	2	1	2_2.gif
91.001	1	3	2	4	0.007	4	1	3_2.gif
92.001	1	1	2	2	0.006	2	1	1_2.gif
93.001	1	4	2	1	0.571	3	0	4_2.gif
94.001	1	2	2	4	0.515	1	0	2_2.gif
95.001	1	3	2	2	0.296	4	0	3_2.gif
96.001	1	2	0	3	0.229	2	0	2_0.gif
97.001	1	1	0	2	0.045	1	0	1_0.gif
98.001	1	2	0	1	0.007	2	0	2_0.gif
99.001	1	4	0	4	0.419	4	1	4_0.gif
100.001	1	2	0	2	0.376	2	1	2_0.gif
101.001	1	3	0	3	0.406	3	1	3_0.gif
102.001	1	4	0	4	0.364	4	1	4_0.gif
103.001	1	2	0	2	0.419	2	1	2_0.gif
104.001	1	3	0	3	0.392	3	1	3_0.gif
105.001	1	2	0	2	0.443	2	1	2_0.gif
106.001	1	4	0	4	0.455	4	1	4_0.gif
107.001	1	1	0	1	0.381	1	1	1_0.gif
108.001	1	3	0	3	0.398	3	1	3_0.gif
109.001	1	1	0	1	0.336	1	1	1_0.gif
110.001	1	2	0	2	0.396	2	1	2_0.gif
111.001	1	4	0	4	0.398	4	1	4_0.gif
112.001	1	2	2	6	0	2	n/a	2_2.gif
113.001	1	3	2	6	0	4	n/a	3_2.gif
114.001	1	2	2	2	0.253	2	1	2_2.gif
115.001	1	3	2	3	0.213	3	1	3_2.gif
116.001	1	2	2	2	0.268	2	1	2_2.gif
117.001	1	4	2	3	0.182	3	1	4_2.gif
118.001	1	1	2	2	0.113	2	1	1_2.gif
119.001	1	2	2	4	0.064	4	1	2_2.gif
120.001	1	3	2	1	0.007	1	1	3_2.gif
121.001	1	1	2	2	0.011	2	1	1_2.gif
122.001	1	2	2	3	0.006	3	1	2_2.gif
123.001	1	1	2	1	0.006	1	1	1_2.gif
124.001	1	4	2	2	0.007	2	1	4_2.gif
125.001	1	3	2	1	0.006	1	1	3_2.gif
126.001	1	4	2	4	0.006	4	1	4_2.gif
127.001	1	2	2	3	0.007	3	1	2_2.gif
128.001	1	3	0	4	0.006	3	0	3_0.gif
129.001	1	2	0	3	0.006	2	0	2_0.gif
130.001	1	3	0	2	0.007	3	0	3_0.gif
131.001	1	2	0	2	0.419	2	1	2_0.gif
132.001	1	3	0	3	0.297	3	1	3_0.gif
133.001	1	2	0	2	0.305	2	1	2_0.gif
134.001	1	4	0	4	0.437	4	1	4_0.gif
135.001	1	2	0	2	0.473	2	1	2_0.gif
136.001	1	1	0	1	0.389	1	1	1_0.gif
137.001	1	4	0	4	0.432	4	1	4_0.gif
138.001	1	2	0	2	0.396	2	1	2_0.gif
139.001	1	4	0	4	0.444	4	1	4_0.gif
140.001	1	3	0	3	0.408	3	1	3_0.gif
141.001	1	2	0	2	0.456	2	1	2_0.gif
142.001	1	3	0	3	0.408	3	1	3_0.gif
143.001	1	1	0	1	0.398	1	1	1_0.gif
144.001	1	3	2	6	0	3	n/a	3_2.gif
145.001	1	4	2	6	0	1	n/a	4_2.gif
146.001	1	2	2	3	0.237	3	1	2_2.gif
147.001	1	4	2	4	0.115	4	1	4_2.gif
148.001	1	1	2	2	0.104	2	1	1_2.gif
149.001	1	3	2	4	0.043	4	1	3_2.gif
150.001	1	4	2	1	0.007	1	1	4_2.gif
151.001	1	1	2	3	0.006	3	1	1_2.gif
152.001	1	3	2	4	0.011	4	1	3_2.gif
153.001	1	1	2	1	0.007	1	1	1_2.gif
154.001	1	3	2	3	0.007	3	1	3_2.gif
155.001	1	1	2	1	0.006	1	1	1_2.gif
156.001	1	2	2	3	0.006	3	1	2_2.gif
157.001	1	3	2	1	0.007	1	1	3_2.gif
158.001	1	2	2	2	0.006	2	1	2_2.gif
159.001	1	1	2	3	0.006	3	1	1_2.gif
160.002	1	3	0	2	0.006	3	0	3_0.gif
161.002	1	4	0	3	0.005	4	0	4_0.gif
162.002	1	3	0	4	0.005	3	0	3_0.gif
163.002	1	4	0	4	0.376	4	1	4_0.gif
164.002	1	1	0	1	0.409	1	1	1_0.gif
165.002	1	4	0	4	0.46	4	1	4_0.gif
166.002	1	1	0	1	0.444	1	1	1_0.gif
167.002	1	3	0	3	0.427	3	1	3_0.gif
168.002	1	4	0	4	0.452	4	1	4_0.gif
169.002	1	2	0	2	0.378	2	1	2_0.gif
170.002	1	3	0	3	0.359	3	1	3_0.gif
171.002	1	1	0	1	0.377	1	1	1_0.gif
172.002	1	4	0	4	0.336	4	1	4_0.gif
173.002	1	1	0	1	0.307	1	1	1_0.gif
174.002	1	3	0	3	0.443	3	1	3_0.gif
175.002	1	4	0	4	0.372	4	1	4_0.gif
176.002	1	1	2	1	0.533	3	0	1_2.gif
177.002	1	2	2	1	0.006	4	0	2_2.gif
178.002	1	1	2	1	0.254	1	1	1_2.gif
179.002	1	4	2	2	0.305	2	1	4_2.gif
180.002	1	3	2	1	0.159	1	1	3_2.gif
181.002	1	1	2	4	0.067	4	1	1_2.gif
182.002	1	2	2	3	0.144	3	1	2_2.gif
183.002	1	4	2	1	0.036	1	1	4_2.gif
184.002	1	1	2	2	0.195	2	1	1_2.gif
185.002	1	3	2	4	0.101	4	1	3_2.gif
186.002	1	2	2	1	0.028	1	1	2_2.gif
187.002	1	3	2	3	0.021	3	1	3_2.gif
188.002	1	4	2	2	0.066	2	1	4_2.gif
189.002	1	3	2	3	0.007	3	1	3_2.gif
190.002	1	1	2	4	0.007	4	1	1_2.gif
191.002	1	3	2	3	0.006	3	1	3_2.gif
192.002	1	1	0	1	0.006	1	1	1_0.gif
193.002	1	4	0	1	0.007	4	0	4_0.gif
194.002	1	1	0	4	0.006	1	0	1_0.gif
195.002	1	4	0	4	0.327	4	1	4_0.gif
196.002	1	1	0	1	0.355	1	1	1_0.gif
197.002	1	4	0	4	0.332	4	1	4_0.gif
198.002	1	2	0	2	0.394	2	1	2_0.gif
199.002	1	4	0	4	0.667	4	1	4_0.gif
200.002	1	1	0	1	0.465	1	1	1_0.gif
201.002	1	2	0	2	0.458	2	1	2_0.gif
202.002	1	3	0	3	0.473	3	1	3_0.gif
203.002	1	2	0	2	0.399	2	1	2_0.gif
204.002	1	3	0	3	0.321	3	1	3_0.gif
205.002	1	2	0	2	0.347	2	1	2_0.gif
206.002	1	3	0	3	0.31	3	1	3_0.gif
207.002	1	1	0	1	0.391	1	1	1_0.gif
208.002	1	4	2	6	0	3	n/a	4_2.gif
209.002	1	3	2	6	0	1	n/a	3_2.gif
210.002	1	4	2	4	0.172	4	1	4_2.gif
211.002	1	1	2	3	0.045	3	1	1_2.gif
212.002	1	2	2	4	0.007	4	1	2_2.gif
213.002	1	3	2	1	0.007	1	1	3_2.gif
214.002	1	2	2	2	0.006	2	1	2_2.gif
215.002	1	4	2	3	0.006	3	1	4_2.gif
216.002	1	2	2	2	0.007	2	1	2_2.gif
217.002	1	3	2	4	0.006	4	1	3_2.gif
218.002	1	2	2	2	0.006	2	1	2_2.gif
219.002	1	4	2	3	0.007	3	1	4_2.gif
220.002	1	1	2	2	0.007	2	1	1_2.gif
221.002	1	3	2	4	0.006	4	1	3_2.gif
222.002	1	2	2	1	0.006	1	1	2_2.gif
223.002	1	1	2	3	0.007	3	1	1_2.gif
224.002	1	4	0	2	0.006	4	0	4_0.gif
225.002	1	1	0	4	0.006	1	0	1_0.gif
226.002	1	3	0	3	0.428	3	1	3_0.gif
227.002	1	1	0	1	0.583	1	1	1_0.gif
228.002	1	4	0	4	0.405	4	1	4_0.gif
229.002	1	3	0	3	0.438	3	1	3_0.gif
230.002	1	4	0	4	0.667	4	1	4_0.gif
231.002	1	2	0	2	0.47	2	1	2_0.gif
232.002	1	3	0	3	0.422	3	1	3_0.gif
233.002	1	2	0	2	0.456	2	1	2_0.gif
234.002	1	1	0	1	0.435	1	1	1_0.gif
235.002	1	4	0	4	0.466	4	1	4_0.gif
236.002	1	2	0	2	0.413	2	1	2_0.gif
237.002	1	3	0	3	0.381	3	1	3_0.gif
238.002	1	4	0	4	0.497	4	1	4_0.gif
239.002	1	2	0	2	0.48	2	1	2_0.gif
240.002	1	4	2	4	0.76	4	1	4_2.gif
241.002	1	1	2	4	0.007	2	0	1_2.gif
242.002	1	2	2	4	0.317	4	1	2_2.gif
243.002	1	4	2	1	0.168	1	1	4_2.gif
244.002	1	1	2	2	0.073	2	1	1_2.gif
245.002	1	4	2	4	0.007	4	1	4_2.gif
246.002	1	3	2	1	0.047	1	1	3_2.gif
247.002	1	1	2	4	0.006	4	1	1_2.gif
248.002	1	3	2	3	0.007	3	1	3_2.gif
249.002	1	1	2	1	0.007	1	1	1_2.gif
250.002	1	3	2	3	0.006	3	1	3_2.gif
251.002	1	1	2	1	0.006	1	1	1_2.gif
252.002	1	4	2	3	0.007	3	1	4_2.gif
253.002	1	1	2	1	0.006	1	1	1_2.gif
254.002	1	4	2	4	0.006	4	1	4_2.gif
255.002	1	1	2	1	0.007	1	1	1_2.gif
