onset	duration	nback_display	trial_type	response	response_time	correct_response	correct	stim_file
0.001	1	2	0	2	0.773	2	1	2_0.gif
1.001	1	3	0	3	0.464	3	1	3_0.gif
2.001	1	1	0	1	0.388	1	1	1_0.gif
3.001	1	3	0	3	0.4	3	1	3_0.gif
4.001	1	2	0	2	0.53	2	1	2_0.gif
5.001	1	4	0	4	0.37	4	1	4_0.gif
6.001	1	2	0	2	0.317	2	1	2_0.gif
7.001	1	4	0	4	0.482	4	1	4_0.gif
8.001	1	1	0	1	0.391	1	1	1_0.gif
9.001	1	2	0	2	0.325	2	1	2_0.gif
10.001	1	4	0	4	0.373	4	1	4_0.gif
11.001	1	1	0	1	0.328	1	1	1_0.gif
12.001	1	3	0	3	0.42	3	1	3_0.gif
13.001	1	2	0	2	0.393	2	1	2_0.gif
14.001	1	4	0	4	0.375	4	1	4_0.gif
15.001	1	3	0	3	0.383	3	1	3_0.gif
16.002	1	2	2	6	0	4	n/a	2_2.gif
17.002	1	4	2	6	0	3	n/a	4_2.gif
18.002	1	2	2	2	0.212	2	1	2_2.gif
19.002	1	4	2	4	0.228	4	1	4_2.gif
20.002	1	1	2	2	0.349	2	1	1_2.gif
21.002	1	2	2	4	0.331	4	1	2_2.gif
22.002	1	3	2	1	0.328	1	1	3_2.gif
23.002	1	1	2	2	0.363	2	1	1_2.gif
24.002	1	4	2	3	0.337	3	1	4_2.gif
25.002	1	3	2	1	0.319	1	1	3_2.gif
26.002	1	4	2	4	0.355	4	1	4_2.gif
27.002	1	2	2	3	0.332	3	1	2_2.gif
28.002	1	3	2	4	0.328	4	1	3_2.gif
29.002	1	1	2	2	0.31	2	1	1_2.gif
30.002	1	4	2	3	0.428	3	1	4_2.gif
31.002	1	2	2	1	0.352	1	1	2_2.gif
32.003	1	3	0	3	0.735	3	1	3_0.gif
33.003	1	4	0	4	0.392	4	1	4_0.gif
34.003	1	2	0	2	0.32	2	1	2_0.gif
35.003	1	4	0	4	0.391	4	1	4_0.gif
36.003	1	1	0	1	0.732	1	1	1_0.gif
37.003	1	4	0	4	0.457	4	1	4_0.gif
38.003	1	3	0	3	0.369	3	1	3_0.gif
39.003	1	2	0	2	0.346	2	1	2_0.gif
40.003	1	4	0	4	0.327	4	1	4_0.gif
41.003	1	1	0	1	0.376	1	1	1_0.gif
42.003	1	2	0	2	0.343	2	1	2_0.gif
43.003	1	4	0	4	0.375	4	1	4_0.gif
44.003	1	2	0	2	0.353	2	1	2_0.gif
45.003	1	1	0	1	0.359	1	1	1_0.gif
46.003	1	4	0	4	0.336	4	1	4_0.gif
47.003	1	2	0	2	0.399	2	1	2_0.gif
48.003	1	3	2	6	0	4	n/a	3_2.gif
49.003	1	2	2	6	0	2	n/a	2_2.gif
50.003	1	1	2	3	0.215	3	1	1_2.gif
51.003	1	3	2	2	0.297	2	1	3_2.gif
52.003	1	1	2	1	0.397	1	1	1_2.gif
53.003	1	3	2	3	0.366	3	1	3_2.gif
54.003	1	1	2	1	0.304	1	1	1_2.gif
55.003	1	3	2	3	0.375	3	1	3_2.gif
56.003	1	2	2	1	0.433	1	1	2_2.gif
57.003	1	3	2	3	0.382	3	1	3_2.gif
58.003	1	2	2	2	0.381	2	1	2_2.gif
59.003	1	3	2	3	0.351	3	1	3_2.gif
60.003	1	2	2	2	0.358	2	1	2_2.gif
61.003	1	4	2	3	0.38	3	1	4_2.gif
62.003	1	3	2	2	0.403	2	1	3_2.gif
63.003	1	2	2	4	0.331	4	1	2_2.gif
64.004	1	4	0	3	0.418	4	0	4_0.gif
65.004	1	1	0	1	0.489	1	1	1_0.gif
66.004	1	2	0	2	0.523	2	1	2_0.gif
67.004	1	3	0	3	0.371	3	1	3_0.gif
68.004	1	1	0	1	0.335	1	1	1_0.gif
69.004	1	4	0	4	0.384	4	1	4_0.gif
70.004	1	1	0	1	0.345	1	1	1_0.gif
71.004	1	3	0	3	0.389	3	1	3_0.gif
72.004	1	2	0	2	0.293	2	1	2_0.gif
73.004	1	4	0	4	0.309	4	1	4_0.gif
74.004	1	1	0	1	0.32	1	1	1_0.gif
75.004	1	3	0	3	0.289	3	1	3_0.gif
76.004	1	1	0	1	0.382	1	1	1_0.gif
77.004	1	3	0	3	0.398	3	1	3_0.gif
78.004	1	1	0	1	0.364	1	1	1_0.gif
79.004	1	3	0	3	0.4	3	1	3_0.gif
80.01	1	4	2	6	0	1	n/a	4_2.gif
81.01	1	1	2	6	0	3	n/a	1_2.gif
82.01	1	4	2	4	0.243	4	1	4_2.gif
83.01	1	2	2	1	0.285	1	1	2_2.gif
84.01	1	3	2	4	0.294	4	1	3_2.gif
85.01	1	4	2	2	0.289	2	1	4_2.gif
86.01	1	3	2	3	0.282	3	1	3_2.gif
87.01	1	2	2	4	0.224	4	1	2_2.gif
88.01	1	4	2	3	0.291	3	1	4_2.gif
89.01	1	2	2	2	0.298	2	1	2_2.gif
90.01	1	4	2	4	0.245	4	1	4_2.gif
91.01	1	1	2	2	0.306	2	1	1_2.gif
92.01	1	3	2	4	0.291	4	1	3_2.gif
93.01	1	2	2	1	0.262	1	1	2_2.gif
94.01	1	1	2	3	0.301	3	1	1_2.gif
95.01	1	3	2	2	0.294	2	1	3_2.gif
96.011	1	4	0	4	0.61	4	1	4_0.gif
97.011	1	1	0	1	0.363	1	1	1_0.gif
98.011	1	3	0	3	0.372	3	1	3_0.gif
99.011	1	4	0	4	0.386	4	1	4_0.gif
100.011	1	1	0	1	0.346	1	1	1_0.gif
101.011	1	4	0	4	0.435	4	1	4_0.gif
102.011	1	2	0	2	0.33	2	1	2_0.gif
103.011	1	4	0	4	0.387	4	1	4_0.gif
104.011	1	1	0	1	0.422	1	1	1_0.gif
105.011	1	2	0	2	0.436	2	1	2_0.gif
106.011	1	4	0	4	0.468	4	1	4_0.gif
107.011	1	2	0	2	0.46	2	1	2_0.gif
108.011	1	4	0	4	0.44	4	1	4_0.gif
109.011	1	2	0	2	0.392	2	1	2_0.gif
110.011	1	3	0	3	0.365	3	1	3_0.gif
111.011	1	1	0	1	0.4	1	1	1_0.gif
112.012	1	3	2	6	0	3	n/a	3_2.gif
113.012	1	4	2	6	0	1	n/a	4_2.gif
114.012	1	2	2	3	0.373	3	1	2_2.gif
115.012	1	4	2	4	0.398	4	1	4_2.gif
116.012	1	2	2	2	0.475	2	1	2_2.gif
117.012	1	4	2	4	0.442	4	1	4_2.gif
118.012	1	1	2	2	0.427	2	1	1_2.gif
119.012	1	2	2	4	0.365	4	1	2_2.gif
120.012	1	1	2	1	0.35	1	1	1_2.gif
121.012	1	2	2	2	0.339	2	1	2_2.gif
122.012	1	3	2	1	0.375	1	1	3_2.gif
123.012	1	1	2	2	0.336	2	1	1_2.gif
124.012	1	4	2	3	0.306	3	1	4_2.gif
125.012	1	2	2	1	0.305	1	1	2_2.gif
126.012	1	1	2	1	0.014	4	0	1_2.gif
127.012	1	2	2	2	0.533	2	1	2_2.gif
128.013	1	4	0	1	0.411	4	0	4_0.gif
129.013	1	1	0	4	0.013	1	0	1_0.gif
130.013	1	3	0	3	0.43	3	1	3_0.gif
131.013	1	4	0	4	0.341	4	1	4_0.gif
132.013	1	1	0	1	0.336	1	1	1_0.gif
133.013	1	4	0	4	0.687	4	1	4_0.gif
134.013	1	1	0	1	0.398	1	1	1_0.gif
135.013	1	4	0	4	0.409	4	1	4_0.gif
136.013	1	3	0	3	0.488	3	1	3_0.gif
137.013	1	2	0	2	0.348	2	1	2_0.gif
138.013	1	4	0	4	0.381	4	1	4_0.gif
139.013	1	2	0	2	0.381	2	1	2_0.gif
140.013	1	1	0	1	0.348	1	1	1_0.gif
141.013	1	4	0	4	0.415	4	1	4_0.gif
142.013	1	1	0	1	0.36	1	1	1_0.gif
143.013	1	3	0	3	0.397	3	1	3_0.gif
144.013	1	1	2	6	0	1	n/a	1_2.gif
145.013	1	2	2	6	0	3	n/a	2_2.gif
146.014	1	1	2	1	0.392	1	1	1_2.gif
147.014	1	4	2	2	0.444	2	1	4_2.gif
148.014	1	3	2	1	0.424	1	1	3_2.gif
149.014	1	4	2	4	0.419	4	1	4_2.gif
150.014	1	2	2	3	0.432	3	1	2_2.gif
151.014	1	4	2	4	0.57	4	1	4_2.gif
152.014	1	1	2	1	0.474	2	0	1_2.gif
153.014	1	3	2	6	0	4	n/a	3_2.gif
154.014	1	1	2	1	0.206	1	1	1_2.gif
155.014	1	3	2	3	0.176	3	1	3_2.gif
156.014	1	1	2	1	0.186	1	1	1_2.gif
157.014	1	2	2	3	0.085	3	1	2_2.gif
158.014	1	4	2	1	0.202	1	1	4_2.gif
159.014	1	1	2	2	0.308	2	1	1_2.gif
160.016	1	2	0	2	0.724	2	1	2_0.gif
161.017	1	4	0	4	0.489	4	1	4_0.gif
162.017	1	3	0	3	0.362	3	1	3_0.gif
163.017	1	4	0	4	0.416	4	1	4_0.gif
164.017	1	1	0	1	0.3	1	1	1_0.gif
165.017	1	2	0	2	0.303	2	1	2_0.gif
166.017	1	3	0	3	0.384	3	1	3_0.gif
167.017	1	2	0	2	0.315	2	1	2_0.gif
168.017	1	4	0	4	0.347	4	1	4_0.gif
169.017	1	2	0	2	0.341	2	1	2_0.gif
170.017	1	3	0	3	0.369	3	1	3_0.gif
171.017	1	1	0	1	0.436	1	1	1_0.gif
172.017	1	4	0	4	0.399	4	1	4_0.gif
173.017	1	2	0	2	0.308	2	1	2_0.gif
174.017	1	1	0	1	0.625	1	1	1_0.gif
175.017	1	4	0	4	0.386	4	1	4_0.gif
176.018	1	1	2	6	0	1	n/a	1_2.gif
177.018	1	3	2	6	0	4	n/a	3_2.gif
178.018	1	1	2	1	0.228	1	1	1_2.gif
179.018	1	4	2	3	0.214	3	1	4_2.gif
180.018	1	1	2	1	0.18	1	1	1_2.gif
181.018	1	2	2	4	0.132	4	1	2_2.gif
182.018	1	1	2	1	0.059	1	1	1_2.gif
183.018	1	3	2	2	0.014	2	1	3_2.gif
184.018	1	1	2	1	0.056	1	1	1_2.gif
185.018	1	4	2	3	0.014	3	1	4_2.gif
186.018	1	2	2	1	0.094	1	1	2_2.gif
187.018	1	3	2	4	0.072	4	1	3_2.gif
188.018	1	1	2	2	0.182	2	1	1_2.gif
189.018	1	3	2	3	0.227	3	1	3_2.gif
190.018	1	2	2	1	0.179	1	1	2_2.gif
191.018	1	4	2	3	0.208	3	1	4_2.gif
192.018	1	2	0	2	0.184	2	1	2_0.gif
193.018	1	4	0	4	0.378	4	1	4_0.gif
194.018	1	1	0	1	0.325	1	1	1_0.gif
195.019	1	2	0	2	0.357	2	1	2_0.gif
196.019	1	4	0	4	0.332	4	1	4_0.gif
197.019	1	1	0	1	0.372	1	1	1_0.gif
198.019	1	3	0	3	0.396	3	1	3_0.gif
199.019	1	2	0	2	0.331	2	1	2_0.gif
200.019	1	4	0	4	0.36	4	1	4_0.gif
201.019	1	3	0	3	0.366	3	1	3_0.gif
202.019	1	2	0	2	0.392	2	1	2_0.gif
203.019	1	4	0	4	0.374	4	1	4_0.gif
204.019	1	2	0	2	0.376	2	1	2_0.gif
205.019	1	4	0	4	0.368	4	1	4_0.gif
206.019	1	1	0	1	0.354	1	1	1_0.gif
207.019	1	2	0	2	0.248	2	1	2_0.gif
208.019	1	3	2	6	0	1	n/a	3_2.gif
209.019	1	1	2	6	0	2	n/a	1_2.gif
210.019	1	4	2	3	0.224	3	1	4_2.gif
211.019	1	3	2	1	0.284	1	1	3_2.gif
212.019	1	4	2	4	0.301	4	1	4_2.gif
213.019	1	2	2	3	0.29	3	1	2_2.gif
214.019	1	3	2	4	0.254	4	1	3_2.gif
215.019	1	1	2	2	0.227	2	1	1_2.gif
216.019	1	4	2	3	0.258	3	1	4_2.gif
217.019	1	2	2	1	0.3	1	1	2_2.gif
218.019	1	3	2	4	0.276	4	1	3_2.gif
219.019	1	4	2	2	0.275	2	1	4_2.gif
220.019	1	2	2	3	0.302	3	1	2_2.gif
221.019	1	4	2	4	0.27	4	1	4_2.gif
222.019	1	1	2	6	0	2	n/a	1_2.gif
223.019	1	4	2	1	0.3	4	0	4_2.gif
224.02	1	3	0	3	0.668	3	1	3_0.gif
225.02	1	2	0	2	0.269	2	1	2_0.gif
226.02	1	4	0	4	0.334	4	1	4_0.gif
227.02	1	1	0	1	0.38	1	1	1_0.gif
228.02	1	2	0	2	0.287	2	1	2_0.gif
229.02	1	4	0	4	0.368	4	1	4_0.gif
230.02	1	2	0	2	0.315	2	1	2_0.gif
231.02	1	1	0	1	0.37	1	1	1_0.gif
232.02	1	4	0	2	0.308	4	0	4_0.gif
233.02	1	2	0	2	0.495	2	1	2_0.gif
234.02	1	3	0	3	0.414	3	1	3_0.gif
235.02	1	2	0	2	0.343	2	1	2_0.gif
236.02	1	1	0	1	0.599	1	1	1_0.gif
237.02	1	3	0	3	0.38	3	1	3_0.gif
238.02	1	1	0	1	0.422	1	1	1_0.gif
239.02	1	3	0	3	0.453	3	1	3_0.gif
240.021	1	1	2	6	0	1	n/a	1_2.gif
241.021	1	3	2	6	0	3	n/a	3_2.gif
242.021	1	2	2	1	0.088	1	1	2_2.gif
243.021	1	3	2	3	0.034	3	1	3_2.gif
244.021	1	2	2	2	0.177	2	1	2_2.gif
245.021	1	3	2	3	0.248	3	1	3_2.gif
246.021	1	2	2	2	0.312	2	1	2_2.gif
247.021	1	4	2	3	0.42	3	1	4_2.gif
248.021	1	3	2	2	0.392	2	1	3_2.gif
249.021	1	2	2	4	0.328	4	1	2_2.gif
250.021	1	4	2	3	0.452	3	1	4_2.gif
251.021	1	1	2	2	0.348	2	1	1_2.gif
252.021	1	2	2	4	0.319	4	1	2_2.gif
253.021	1	3	2	1	0.368	1	1	3_2.gif
254.021	1	1	2	2	0.387	2	1	1_2.gif
255.021	1	4	2	3	0.325	3	1	4_2.gif
