onset	duration	nback_display	trial_type	response	response_time	correct_response	correct	stim_file
0	1	3	0	3	0.708	3	1	3_0.gif
1	1	4	0	3	0.005	4	0	4_0.gif
2	1	3	0	4	0.372	3	0	3_0.gif
3	1	1	0	3	0.006	1	0	1_0.gif
4	1	3	0	3	0.381	3	1	3_0.gif
5	1	4	0	4	0.313	4	1	4_0.gif
6	1	2	0	2	0.538	2	1	2_0.gif
7	1	4	0	4	0.46	4	1	4_0.gif
8	1	1	0	1	0.453	1	1	1_0.gif
9	1	2	0	2	0.36	2	1	2_0.gif
10	1	1	0	1	0.433	1	1	1_0.gif
11	1	2	0	2	0.323	2	1	2_0.gif
12	1	1	0	1	0.408	1	1	1_0.gif
13	1	4	0	4	0.487	4	1	4_0.gif
14	1	2	0	2	0.532	2	1	2_0.gif
15	1	1	0	1	0.406	1	1	1_0.gif
16	1	3	2	6	0	2	n/a	3_2.gif
17	1	4	2	6	0	1	n/a	4_2.gif
18	1	2	2	3	0.318	3	1	2_2.gif
19	1	4	2	4	0.007	4	1	4_2.gif
20	1	1	2	2	0.086	2	1	1_2.gif
21	1	4	2	4	0.232	4	1	4_2.gif
22	1	1	2	1	0.185	1	1	1_2.gif
23	1	2	2	4	0.127	4	1	2_2.gif
24	1	3	2	1	0.197	1	1	3_2.gif
25	1	4	2	2	0.144	2	1	4_2.gif
26	1	1	2	3	0.007	3	1	1_2.gif
27	1	3	2	4	0.006	4	1	3_2.gif
28	1	1	2	1	0.173	1	1	1_2.gif
29	1	3	2	3	0.191	3	1	3_2.gif
30.001	1	4	2	1	0.423	1	1	4_2.gif
31.001	1	2	2	4	0.303	3	0	2_2.gif
32.002	1	1	0	3	0.291	1	0	1_0.gif
33.002	1	4	0	1	0.006	4	0	4_0.gif
34.002	1	3	0	3	0.377	3	1	3_0.gif
35.002	1	2	0	2	0.506	2	1	2_0.gif
36.002	1	4	0	4	0.453	4	1	4_0.gif
37.002	1	3	0	3	0.418	3	1	3_0.gif
38.002	1	2	0	2	0.387	2	1	2_0.gif
39.002	1	3	0	3	0.361	3	1	3_0.gif
40.002	1	1	0	1	0.475	1	1	1_0.gif
41.002	1	2	0	2	0.466	2	1	2_0.gif
42.002	1	4	0	4	0.449	4	1	4_0.gif
43.002	1	1	0	1	0.331	1	1	1_0.gif
44.002	1	2	0	2	0.531	2	1	2_0.gif
45.002	1	1	0	1	0.429	1	1	1_0.gif
46.002	1	4	0	4	0.481	4	1	4_0.gif
47.002	1	3	0	3	0.378	3	1	3_0.gif
48.002	1	4	2	4	0.772	4	1	4_2.gif
49.002	1	3	2	4	0.006	3	0	3_2.gif
50.002	1	2	2	4	0.867	4	1	2_2.gif
51.002	1	1	2	4	0.009	3	0	1_2.gif
52.002	1	3	2	2	0.17	2	1	3_2.gif
53.002	1	4	2	1	0.005	1	1	4_2.gif
54.002	1	3	2	3	0.006	3	1	3_2.gif
55.002	1	2	2	6	0	4	n/a	2_2.gif
56.002	1	4	2	3	0.236	3	1	4_2.gif
57.002	1	1	2	2	0.254	2	1	1_2.gif
58.002	1	3	2	4	0.006	4	1	3_2.gif
59.002	1	2	2	1	0.006	1	1	2_2.gif
60.002	1	1	2	3	0.117	3	1	1_2.gif
61.002	1	3	2	2	0.175	2	1	3_2.gif
62.002	1	4	2	1	0.19	1	1	4_2.gif
63.002	1	3	2	3	0.646	3	1	3_2.gif
64.002	1	1	0	1	0.823	1	1	1_0.gif
65.002	1	4	0	1	0.007	4	0	4_0.gif
66.002	1	2	0	2	0.446	2	1	2_0.gif
67.002	1	4	0	4	0.416	4	1	4_0.gif
68.002	1	2	0	2	0.428	2	1	2_0.gif
69.002	1	1	0	1	0.429	1	1	1_0.gif
70.002	1	3	0	3	0.376	3	1	3_0.gif
71.002	1	2	0	2	0.384	2	1	2_0.gif
72.002	1	1	0	1	0.372	1	1	1_0.gif
73.002	1	4	0	4	0.435	4	1	4_0.gif
74.002	1	3	0	3	0.457	3	1	3_0.gif
75.002	1	1	0	1	0.445	1	1	1_0.gif
76.002	1	2	0	2	0.406	2	1	2_0.gif
77.002	1	1	0	1	0.43	1	1	1_0.gif
78.002	1	2	0	2	0.544	2	1	2_0.gif
79.002	1	4	0	4	0.396	4	1	4_0.gif
80.003	1	1	2	6	0	2	n/a	1_2.gif
81.003	1	3	2	6	0	4	n/a	3_2.gif
82.003	1	1	2	1	0.32	1	1	1_2.gif
83.003	1	3	2	3	0.27	3	1	3_2.gif
84.003	1	1	2	1	0.339	1	1	1_2.gif
85.003	1	2	2	3	0.408	3	1	2_2.gif
86.003	1	3	2	1	0.318	1	1	3_2.gif
87.003	1	2	2	2	0.245	2	1	2_2.gif
88.003	1	1	2	3	0.25	3	1	1_2.gif
89.003	1	4	2	2	0.245	2	1	4_2.gif
90.003	1	2	2	1	0.205	1	1	2_2.gif
91.003	1	3	2	4	0.19	4	1	3_2.gif
92.003	1	4	2	2	0.19	2	1	4_2.gif
93.003	1	2	2	3	0.219	3	1	2_2.gif
94.003	1	4	2	4	0.038	4	1	4_2.gif
95.003	1	2	2	2	0.506	2	1	2_2.gif
96.003	1	1	0	4	0.318	1	0	1_0.gif
97.003	1	4	0	4	0.304	4	1	4_0.gif
98.003	1	1	0	1	0.461	1	1	1_0.gif
99.003	1	3	0	3	0.411	3	1	3_0.gif
100.003	1	1	0	1	0.39	1	1	1_0.gif
101.003	1	2	0	2	0.46	2	1	2_0.gif
102.003	1	3	0	2	0.007	3	0	3_0.gif
103.004	1	1	0	1	0.476	1	1	1_0.gif
104.004	1	2	0	2	0.359	2	1	2_0.gif
105.004	1	1	0	1	0.397	1	1	1_0.gif
106.004	1	3	0	3	0.303	3	1	3_0.gif
107.004	1	4	0	4	0.439	4	1	4_0.gif
108.004	1	2	0	2	0.526	2	1	2_0.gif
109.004	1	4	0	4	0.407	4	1	4_0.gif
110.004	1	1	0	1	0.389	1	1	1_0.gif
111.004	1	4	0	4	0.387	4	1	4_0.gif
112.004	1	2	2	6	0	1	n/a	2_2.gif
113.004	1	4	2	6	0	4	n/a	4_2.gif
114.006	1	2	2	2	0.477	2	1	2_2.gif
115.006	1	1	2	4	0.307	4	1	1_2.gif
116.006	1	2	2	2	0.35	2	1	2_2.gif
117.006	1	3	2	1	0.273	1	1	3_2.gif
118.006	1	4	2	2	0.234	2	1	4_2.gif
119.006	1	1	2	3	0.27	3	1	1_2.gif
120.006	1	2	2	4	0.271	4	1	2_2.gif
121.006	1	1	2	1	0.338	1	1	1_2.gif
122.006	1	2	2	2	0.528	2	1	2_2.gif
123.006	1	3	2	1	0.441	1	1	3_2.gif
124.006	1	1	2	3	0.678	2	0	1_2.gif
125.006	1	2	2	1	0.763	3	0	2_2.gif
126.006	1	3	2	1	0.007	1	1	3_2.gif
127.006	1	4	2	6	0	2	n/a	4_2.gif
128.006	1	3	0	3	0.571	3	1	3_0.gif
129.006	1	1	0	1	0.391	1	1	1_0.gif
130.006	1	2	0	2	0.406	2	1	2_0.gif
131.006	1	1	0	1	0.358	1	1	1_0.gif
132.006	1	3	0	3	0.286	3	1	3_0.gif
133.006	1	1	0	1	0.326	1	1	1_0.gif
134.006	1	2	0	2	0.466	2	1	2_0.gif
135.007	1	4	0	4	0.403	4	1	4_0.gif
136.007	1	3	0	3	0.318	3	1	3_0.gif
137.007	1	1	0	1	0.277	1	1	1_0.gif
138.007	1	4	0	4	0.381	4	1	4_0.gif
139.007	1	2	0	2	0.455	2	1	2_0.gif
140.007	1	1	0	1	0.429	1	1	1_0.gif
141.007	1	3	0	3	0.344	3	1	3_0.gif
142.007	1	1	0	1	0.48	1	1	1_0.gif
143.007	1	2	0	2	0.443	2	1	2_0.gif
144.007	1	3	2	6	0	1	n/a	3_2.gif
145.007	1	1	2	6	0	2	n/a	1_2.gif
146.007	1	3	2	3	0.229	3	1	3_2.gif
147.007	1	4	2	1	0.245	1	1	4_2.gif
148.007	1	2	2	3	0.364	3	1	2_2.gif
149.007	1	3	2	4	0.287	4	1	3_2.gif
150.007	1	4	2	2	0.057	2	1	4_2.gif
151.007	1	2	2	3	0.007	3	1	2_2.gif
152.007	1	4	2	4	0.006	4	1	4_2.gif
153.007	1	2	2	2	0.02	2	1	2_2.gif
154.007	1	4	2	4	0.007	4	1	4_2.gif
155.007	1	1	2	6	0	2	n/a	1_2.gif
156.008	1	2	2	4	0.77	4	1	2_2.gif
157.008	1	1	2	4	0.009	1	0	1_2.gif
158.008	1	4	2	1	0.006	2	0	4_2.gif
159.008	1	2	2	6	0	1	n/a	2_2.gif
160.008	1	3	0	3	0.623	3	1	3_0.gif
161.008	1	2	0	2	0.417	2	1	2_0.gif
162.008	1	3	0	3	0.371	3	1	3_0.gif
163.008	1	4	0	4	0.73	4	1	4_0.gif
164.008	1	3	0	4	0.007	3	0	3_0.gif
165.008	1	4	0	4	0.266	4	1	4_0.gif
166.008	1	1	0	1	0.395	1	1	1_0.gif
167.008	1	2	0	2	0.391	2	1	2_0.gif
168.008	1	3	0	3	0.363	3	1	3_0.gif
169.008	1	1	0	1	0.395	1	1	1_0.gif
170.008	1	2	0	2	0.366	2	1	2_0.gif
171.008	1	4	0	4	0.345	4	1	4_0.gif
172.008	1	3	0	3	0.262	3	1	3_0.gif
173.008	1	4	0	4	0.323	4	1	4_0.gif
174.008	1	2	0	2	0.309	2	1	2_0.gif
175.008	1	3	0	3	0.362	3	1	3_0.gif
176.008	1	4	2	4	0.741	2	0	4_2.gif
177.009	1	1	2	6	0	3	n/a	1_2.gif
178.009	1	4	2	4	0.39	4	1	4_2.gif
179.009	1	3	2	1	0.556	1	1	3_2.gif
180.009	1	2	2	3	0.629	4	0	2_2.gif
181.009	1	3	2	6	0	3	n/a	3_2.gif
182.009	1	1	2	2	0.315	2	1	1_2.gif
183.009	1	4	2	3	0.342	3	1	4_2.gif
184.009	1	1	2	1	0.455	1	1	1_2.gif
185.009	1	2	2	4	0.243	4	1	2_2.gif
186.009	1	3	2	2	0.372	1	0	3_2.gif
187.009	1	2	2	6	0	2	n/a	2_2.gif
188.009	1	4	2	2	0.592	3	0	4_2.gif
189.009	1	2	2	3	0.266	2	0	2_2.gif
190.009	1	4	2	2	0.852	4	0	4_2.gif
191.009	1	3	2	2	0.006	2	1	3_2.gif
192.009	1	4	0	4	0.006	4	1	4_0.gif
193.009	1	3	0	3	0.498	3	1	3_0.gif
194.009	1	1	0	1	0.324	1	1	1_0.gif
195.009	1	3	0	3	0.375	3	1	3_0.gif
196.009	1	4	0	4	0.412	4	1	4_0.gif
197.009	1	2	0	2	0.378	2	1	2_0.gif
198.01	1	4	0	4	0.436	4	1	4_0.gif
199.01	1	1	0	1	0.374	1	1	1_0.gif
200.01	1	2	0	2	0.468	2	1	2_0.gif
201.01	1	1	0	1	0.465	1	1	1_0.gif
202.01	1	2	0	2	0.422	2	1	2_0.gif
203.01	1	1	0	1	0.395	1	1	1_0.gif
204.01	1	4	0	4	0.432	4	1	4_0.gif
205.01	1	2	0	2	0.397	2	1	2_0.gif
206.01	1	1	0	1	0.357	1	1	1_0.gif
207.01	1	3	0	3	0.338	3	1	3_0.gif
208.01	1	4	2	6	0	1	n/a	4_2.gif
209.01	1	2	2	6	0	3	n/a	2_2.gif
210.01	1	4	2	4	0.307	4	1	4_2.gif
211.01	1	1	2	1	0.177	2	0	1_2.gif
212.01	1	4	2	4	0.164	4	1	4_2.gif
213.01	1	1	2	2	0.006	1	0	1_2.gif
214.01	1	2	2	4	0.542	4	1	2_2.gif
215.01	1	3	2	1	0.187	1	1	3_2.gif
216.01	1	4	2	4	0.15	2	0	4_2.gif
217.01	1	1	2	1	0.006	3	0	1_2.gif
218.01	1	3	2	2	0.006	4	0	3_2.gif
219.01	1	1	2	3	0.006	1	0	1_2.gif
220.01	1	3	2	4	0.006	3	0	3_2.gif
221.01	1	4	2	1	0.007	1	1	4_2.gif
222.01	1	2	2	4	0.072	3	0	2_2.gif
223.01	1	1	2	4	0.227	4	1	1_2.gif
224.011	1	4	0	4	0.741	4	1	4_0.gif
225.011	1	3	0	4	0.006	3	0	3_0.gif
226.011	1	2	0	2	0.364	2	1	2_0.gif
227.011	1	4	0	4	0.34	4	1	4_0.gif
228.011	1	3	0	3	0.265	3	1	3_0.gif
229.011	1	2	0	2	0.27	2	1	2_0.gif
230.011	1	3	0	4	0.312	3	0	3_0.gif
231.011	1	1	0	1	0.47	1	1	1_0.gif
232.011	1	2	0	2	0.407	2	1	2_0.gif
233.011	1	4	0	4	0.406	4	1	4_0.gif
234.011	1	1	0	1	0.416	1	1	1_0.gif
235.011	1	2	0	2	0.366	2	1	2_0.gif
236.011	1	1	0	1	0.354	1	1	1_0.gif
237.011	1	4	0	4	0.428	4	1	4_0.gif
238.011	1	3	0	3	0.361	3	1	3_0.gif
239.011	1	4	0	4	0.443	4	1	4_0.gif
240.011	1	3	2	6	0	3	n/a	3_2.gif
241.011	1	2	2	6	0	4	n/a	2_2.gif
242.011	1	1	2	3	0.343	3	1	1_2.gif
243.011	1	3	2	2	0.151	2	1	3_2.gif
244.011	1	4	2	1	0.145	1	1	4_2.gif
245.011	1	3	2	3	0.988	3	1	3_2.gif
246.011	1	2	2	3	0.006	4	0	2_2.gif
247.011	1	4	2	3	0.529	3	1	4_2.gif
248.011	1	1	2	2	0.333	2	1	1_2.gif
249.011	1	3	2	4	0.123	4	1	3_2.gif
250.011	1	2	2	1	0.006	1	1	2_2.gif
251.011	1	1	2	3	0.046	3	1	1_2.gif
252.011	1	3	2	2	0.005	2	1	3_2.gif
253.011	1	4	2	1	0.098	1	1	4_2.gif
254.011	1	3	2	3	0.228	3	1	3_2.gif
255.011	1	1	2	4	0.289	4	1	1_2.gif
