onset	duration	nback_display	trial_type	response	response_time	correct_response	correct	stim_file
0	1	1	0	2	0.936	1	0	1_0.gif
1	1	2	0	2	0.003	2	1	2_0.gif
2	1	1	0	4	0.148	1	0	1_0.gif
3	1	4	0	2	0.003	4	0	4_0.gif
4	1	1	0	3	0.003	1	0	1_0.gif
5	1	2	0	2	0.169	2	1	2_0.gif
6	1	1	0	4	0.003	1	0	1_0.gif
7	1	4	0	3	0.647	4	0	4_0.gif
8	1	3	0	6	0	3	n/a	3_0.gif
9	1	1	0	6	0	1	n/a	1_0.gif
10	1	2	0	2	0.618	2	1	2_0.gif
11	1	3	0	1	0.789	3	0	3_0.gif
12	1	1	0	1	0.003	1	1	1_0.gif
13	1	3	0	2	0.014	3	0	3_0.gif
14	1	4	0	3	0.003	4	0	4_0.gif
15	1	3	0	6	0	3	n/a	3_0.gif
16	1	4	2	6	0	4	n/a	4_2.gif
17	1	2	2	6	0	3	n/a	2_2.gif
18	1	1	2	4	0.468	4	1	1_2.gif
19	1	2	2	6	0	2	n/a	2_2.gif
20	1	3	2	2	0.589	1	0	3_2.gif
21	1	4	2	6	0	2	n/a	4_2.gif
22	1	2	2	2	0.49	3	0	2_2.gif
23	1	3	2	6	0	4	n/a	3_2.gif
24	1	2	2	6	0	2	n/a	2_2.gif
25	1	4	2	2	0.362	3	0	4_2.gif
26	1	2	2	6	0	2	n/a	2_2.gif
27.001	1	3	2	4	0.8	4	1	3_2.gif
28.001	1	1	2	4	0.002	2	0	1_2.gif
29.001	1	2	2	6	0	3	n/a	2_2.gif
30.001	1	4	2	6	0	1	n/a	4_2.gif
31.001	1	3	2	4	0.795	2	0	3_2.gif
32.001	1	2	0	4	0.003	2	0	2_0.gif
33.001	1	4	0	2	0.003	4	0	4_0.gif
34.001	1	2	0	6	0	2	n/a	2_0.gif
35.001	1	4	0	4	0.951	4	1	4_0.gif
36.001	1	1	0	4	0.003	1	0	1_0.gif
37.001	1	3	0	2	0.767	3	0	3_0.gif
38.001	1	4	0	2	0.003	4	0	4_0.gif
39.001	1	3	0	6	0	3	n/a	3_0.gif
40.001	1	2	0	3	0.119	2	0	2_0.gif
41.001	1	1	0	2	0.003	1	0	1_0.gif
42.001	1	4	0	6	0	4	n/a	4_0.gif
43.001	1	3	0	3	0.457	3	1	3_0.gif
44.001	1	1	0	6	0	1	n/a	1_0.gif
45.001	1	4	0	2	0.197	4	0	4_0.gif
46.001	1	1	0	3	0.499	1	0	1_0.gif
47.001	1	3	0	6	0	3	n/a	3_0.gif
48.002	1	4	2	1	0.175	1	1	4_2.gif
49.002	1	2	2	6	0	3	n/a	2_2.gif
50.002	1	1	2	6	0	4	n/a	1_2.gif
51.002	1	4	2	3	0.399	2	0	4_2.gif
52.002	1	2	2	6	0	1	n/a	2_2.gif
53.002	1	4	2	2	0.13	4	0	4_2.gif
54.002	1	1	2	6	0	2	n/a	1_2.gif
55.002	1	4	2	6	0	4	n/a	4_2.gif
56.002	1	2	2	3	0.628	1	0	2_2.gif
57.002	1	1	2	6	0	4	n/a	1_2.gif
58.002	1	2	2	6	0	2	n/a	2_2.gif
59.002	1	1	2	4	0.132	1	0	1_2.gif
60.002	1	3	2	2	0.003	2	1	3_2.gif
61.002	1	4	2	1	0.08	1	1	4_2.gif
62.002	1	2	2	3	0.18	3	1	2_2.gif
63.002	1	4	2	6	0	4	n/a	4_2.gif
64.002	1	3	0	6	0	3	n/a	3_0.gif
65.002	1	1	0	3	0.398	1	0	1_0.gif
66.002	1	3	0	2	0.044	3	0	3_0.gif
67.002	1	4	0	3	0.003	4	0	4_0.gif
68.002	1	3	0	4	0.049	3	0	3_0.gif
69.002	1	4	0	6	0	4	n/a	4_0.gif
70.002	1	2	0	6	0	2	n/a	2_0.gif
71.002	1	1	0	6	0	1	n/a	1_0.gif
72.002	1	3	0	6	0	3	n/a	3_0.gif
73.002	1	4	0	6	0	4	n/a	4_0.gif
74.002	1	2	0	6	0	2	n/a	2_0.gif
75.002	1	4	0	6	0	4	n/a	4_0.gif
76.002	1	1	0	3	0.225	1	0	1_0.gif
77.002	1	4	0	3	0.004	4	0	4_0.gif
78.002	1	2	0	3	0.125	2	0	2_0.gif
79.002	1	3	0	3	0.678	3	1	3_0.gif
80.003	1	1	2	6	0	2	n/a	1_2.gif
81.003	1	4	2	2	0.004	3	0	4_2.gif
82.003	1	2	2	6	0	1	n/a	2_2.gif
83.003	1	4	2	4	0.116	4	1	4_2.gif
84.003	1	1	2	3	0.003	2	0	1_2.gif
85.003	1	3	2	2	0.003	4	0	3_2.gif
86.003	1	4	2	1	0.003	1	1	4_2.gif
87.003	1	2	2	4	0.077	3	0	2_2.gif
88.003	1	4	2	6	0	4	n/a	4_2.gif
89.003	1	2	2	6	0	2	n/a	2_2.gif
90.003	1	1	2	1	0.132	4	0	1_2.gif
91.003	1	4	2	6	0	2	n/a	4_2.gif
92.003	1	2	2	3	0.07	1	0	2_2.gif
93.003	1	3	2	4	0.003	4	1	3_2.gif
94.003	1	4	2	6	0	2	n/a	4_2.gif
95.003	1	2	2	6	0	3	n/a	2_2.gif
96.003	1	3	0	1	0.362	3	0	3_0.gif
97.003	1	4	0	6	0	4	n/a	4_0.gif
98.003	1	3	0	6	0	3	n/a	3_0.gif
99.004	1	1	0	1	0.601	1	1	1_0.gif
100.004	1	2	0	6	0	2	n/a	2_0.gif
101.004	1	4	0	6	0	4	n/a	4_0.gif
102.004	1	1	0	6	0	1	n/a	1_0.gif
103.004	1	3	0	6	0	3	n/a	3_0.gif
104.004	1	1	0	3	0.473	1	0	1_0.gif
105.004	1	3	0	2	0.143	3	0	3_0.gif
106.004	1	1	0	3	0.057	1	0	1_0.gif
107.004	1	2	0	6	0	2	n/a	2_0.gif
108.005	1	4	0	6	0	4	n/a	4_0.gif
109.005	1	2	0	6	0	2	n/a	2_0.gif
110.005	1	3	0	3	0.879	3	1	3_0.gif
111.005	1	4	0	3	0.003	4	0	4_0.gif
112.005	1	3	2	4	0.003	3	0	3_2.gif
113.005	1	4	2	6	0	4	n/a	4_2.gif
114.005	1	3	2	6	0	3	n/a	3_2.gif
115.005	1	4	2	6	0	4	n/a	4_2.gif
116.005	1	1	2	6	0	3	n/a	1_2.gif
117.005	1	4	2	6	0	4	n/a	4_2.gif
118.005	1	1	2	6	0	1	n/a	1_2.gif
119.005	1	2	2	6	0	4	n/a	2_2.gif
120.005	1	4	2	6	0	1	n/a	4_2.gif
121.005	1	3	2	1	0.896	2	0	3_2.gif
122.005	1	1	2	1	0.003	4	0	1_2.gif
123.005	1	3	2	6	0	3	n/a	3_2.gif
124.005	1	2	2	2	0.759	1	0	2_2.gif
125.005	1	1	2	6	0	3	n/a	1_2.gif
126.005	1	3	2	6	0	2	n/a	3_2.gif
127.005	1	4	2	6	0	1	n/a	4_2.gif
128.005	1	1	0	6	0	1	n/a	1_0.gif
129.005	1	2	0	2	0.988	2	1	2_0.gif
130.005	1	1	0	2	0.004	1	0	1_0.gif
131.005	1	4	0	6	0	4	n/a	4_0.gif
132.006	1	3	0	6	0	3	n/a	3_0.gif
133.006	1	2	0	6	0	2	n/a	2_0.gif
134.006	1	3	0	6	0	3	n/a	3_0.gif
135.006	1	2	0	1	0.254	2	0	2_0.gif
136.006	1	3	0	6	0	3	n/a	3_0.gif
137.006	1	4	0	6	0	4	n/a	4_0.gif
138.006	1	1	0	6	0	1	n/a	1_0.gif
139.006	1	3	0	6	0	3	n/a	3_0.gif
140.006	1	4	0	6	0	4	n/a	4_0.gif
141.006	1	3	0	3	0.654	3	1	3_0.gif
142.006	1	1	0	3	0.003	1	0	1_0.gif
143.006	1	3	0	6	0	3	n/a	3_0.gif
144.006	1	4	2	6	0	1	n/a	4_2.gif
145.006	1	3	2	6	0	3	n/a	3_2.gif
146.006	1	4	2	6	0	4	n/a	4_2.gif
147.006	1	1	2	6	0	3	n/a	1_2.gif
148.006	1	3	2	6	0	4	n/a	3_2.gif
149.006	1	4	2	6	0	1	n/a	4_2.gif
150.006	1	2	2	6	0	3	n/a	2_2.gif
151.006	1	1	2	6	0	4	n/a	1_2.gif
152.006	1	2	2	4	0.705	2	0	2_2.gif
153.006	1	4	2	4	0.004	1	0	4_2.gif
154.006	1	2	2	6	0	2	n/a	2_2.gif
155.006	1	4	2	3	0.685	4	0	4_2.gif
156.006	1	2	2	3	0.003	2	0	2_2.gif
157.006	1	3	2	6	0	4	n/a	3_2.gif
158.006	1	4	2	4	0.983	2	0	4_2.gif
159.006	1	3	2	4	0.004	3	0	3_2.gif
160.007	1	1	0	6	0	1	n/a	1_0.gif
161.007	1	4	0	6	0	4	n/a	4_0.gif
162.007	1	3	0	3	0.375	3	1	3_0.gif
163.007	1	1	0	1	0.79	1	1	1_0.gif
164.007	1	2	0	1	0.003	2	0	2_0.gif
165.007	1	1	0	4	0.281	1	0	1_0.gif
166.007	1	2	0	2	0.221	2	1	2_0.gif
167.007	1	4	0	4	0.003	4	1	4_0.gif
168.007	1	2	0	3	0.003	2	0	2_0.gif
169.007	1	1	0	4	0.054	1	0	1_0.gif
170.007	1	3	0	2	0.003	3	0	3_0.gif
171.007	1	1	0	3	0.003	1	0	1_0.gif
172.007	1	2	0	2	0.003	2	1	2_0.gif
173.007	1	1	0	4	0.136	1	0	1_0.gif
174.007	1	4	0	3	0.794	4	0	4_0.gif
175.007	1	3	0	3	0.003	3	1	3_0.gif
176.007	1	2	2	1	0.003	4	0	2_2.gif
177.007	1	1	2	6	0	3	n/a	1_2.gif
178.007	1	4	2	4	0.542	2	0	4_2.gif
179.007	1	3	2	6	0	1	n/a	3_2.gif
180.007	1	1	2	6	0	4	n/a	1_2.gif
181.007	1	4	2	6	0	3	n/a	4_2.gif
182.007	1	3	2	1	0.338	1	1	3_2.gif
183.007	1	4	2	6	0	4	n/a	4_2.gif
184.007	1	2	2	3	0.431	3	1	2_2.gif
185.007	1	4	2	6	0	4	n/a	4_2.gif
186.007	1	3	2	6	0	2	n/a	3_2.gif
187.007	1	4	2	1	0.642	4	0	4_2.gif
188.007	1	2	2	6	0	3	n/a	2_2.gif
189.007	1	1	2	6	0	4	n/a	1_2.gif
190.007	1	2	2	4	0.521	2	0	2_2.gif
191.007	1	4	2	4	0.003	1	0	4_2.gif
192.008	1	2	0	6	0	2	n/a	2_0.gif
193.008	1	1	0	6	0	1	n/a	1_0.gif
194.008	1	4	0	6	0	4	n/a	4_0.gif
195.008	1	1	0	3	0.046	1	0	1_0.gif
196.008	1	2	0	2	0.003	2	1	2_0.gif
197.008	1	1	0	2	0.538	1	0	1_0.gif
198.008	1	4	0	3	0.681	4	0	4_0.gif
199.008	1	3	0	3	0.003	3	1	3_0.gif
200.008	1	1	0	1	0.516	1	1	1_0.gif
201.008	1	2	0	2	0.207	2	1	2_0.gif
202.008	1	3	0	4	0.003	3	0	3_0.gif
203.008	1	1	0	1	0.003	1	1	1_0.gif
204.008	1	3	0	2	0.003	3	0	3_0.gif
205.008	1	4	0	1	0.252	4	0	4_0.gif
206.008	1	3	0	3	0.572	3	1	3_0.gif
207.008	1	4	0	3	0.738	4	0	4_0.gif
208.008	1	2	2	3	0.003	3	1	2_2.gif
209.008	1	1	2	6	0	4	n/a	1_2.gif
210.008	1	2	2	6	0	2	n/a	2_2.gif
211.008	1	3	2	2	0.06	1	0	3_2.gif
212.008	1	4	2	6	0	2	n/a	4_2.gif
213.008	1	2	2	1	0.773	3	0	2_2.gif
214.008	1	3	2	1	0.003	4	0	3_2.gif
215.008	1	2	2	1	0.84	2	0	2_2.gif
216.008	1	4	2	1	0.003	3	0	4_2.gif
217.008	1	2	2	6	0	2	n/a	2_2.gif
218.008	1	3	2	1	0.537	4	0	3_2.gif
219.008	1	1	2	6	0	2	n/a	1_2.gif
220.008	1	2	2	6	0	3	n/a	2_2.gif
221.008	1	4	2	2	0.315	1	0	4_2.gif
222.008	1	3	2	6	0	2	n/a	3_2.gif
223.008	1	2	2	6	0	4	n/a	2_2.gif
224.009	1	4	0	6	0	4	n/a	4_0.gif
225.009	1	2	0	2	0.711	2	1	2_0.gif
226.009	1	4	0	2	0.003	4	0	4_0.gif
227.009	1	1	0	6	0	1	n/a	1_0.gif
228.009	1	3	0	3	0.939	3	1	3_0.gif
229.009	1	4	0	3	0.003	4	0	4_0.gif
230.009	1	3	0	6	0	3	n/a	3_0.gif
231.009	1	2	0	4	0.901	2	0	2_0.gif
232.009	1	1	0	4	0.003	1	0	1_0.gif
233.009	1	4	0	2	0.003	4	0	4_0.gif
234.009	1	3	0	3	0.003	3	1	3_0.gif
235.009	1	1	0	1	0.003	1	1	1_0.gif
236.009	1	4	0	2	0.003	4	0	4_0.gif
237.009	1	1	0	3	0.003	1	0	1_0.gif
238.009	1	3	0	2	0.003	3	0	3_0.gif
239.009	1	4	0	3	0.003	4	0	4_0.gif
240.009	1	2	2	4	0.003	3	0	2_2.gif
241.009	1	1	2	6	0	4	n/a	1_2.gif
242.009	1	4	2	2	0.575	2	1	4_2.gif
243.009	1	2	2	6	0	1	n/a	2_2.gif
244.009	1	4	2	3	0.195	4	0	4_2.gif
245.009	1	1	2	6	0	2	n/a	1_2.gif
246.009	1	4	2	3	0.758	4	0	4_2.gif
247.01	1	2	2	3	0.003	1	0	2_2.gif
248.01	1	1	2	6	0	4	n/a	1_2.gif
249.01	1	2	2	4	0.47	2	0	2_2.gif
250.01	1	1	2	6	0	1	n/a	1_2.gif
251.01	1	3	2	6	0	2	n/a	3_2.gif
252.01	1	4	2	2	0.438	1	0	4_2.gif
253.01	1	2	2	6	0	3	n/a	2_2.gif
254.01	1	4	2	6	0	4	n/a	4_2.gif
255.01	1	3	2	3	0.205	2	0	3_2.gif
