onset	duration	nback_display	trial_type	response	response_time	correct_response	correct	stim_file
0	1	4	0	4	0.891	4	1	4_0.gif
1	1	3	0	4	0.006	3	0	3_0.gif
2	1	4	0	4	0.666	4	1	4_0.gif
3	1	3	0	3	0.339	3	1	3_0.gif
4	1	4	0	4	0.46	4	1	4_0.gif
5	1	1	0	1	0.445	1	1	1_0.gif
6	1	4	0	4	0.474	4	1	4_0.gif
7	1	3	0	3	0.427	3	1	3_0.gif
8	1	2	0	2	0.434	2	1	2_0.gif
9	1	4	0	4	0.596	4	1	4_0.gif
10	1	1	0	1	0.507	1	1	1_0.gif
11	1	2	0	2	0.343	2	1	2_0.gif
12	1	3	0	3	0.389	3	1	3_0.gif
13	1	2	0	2	0.394	2	1	2_0.gif
14	1	3	0	3	0.423	3	1	3_0.gif
15	1	2	0	2	0.375	2	1	2_0.gif
16	1	3	2	6	0	3	n/a	3_2.gif
17	1	1	2	6	0	2	n/a	1_2.gif
18	1	4	2	3	0.346	3	1	4_2.gif
19	1	3	2	1	0.207	1	1	3_2.gif
20	1	2	2	4	0.121	4	1	2_2.gif
21	1	4	2	3	0.632	3	1	4_2.gif
22	1	2	2	6	0	2	n/a	2_2.gif
23	1	4	2	2	0.158	4	0	4_2.gif
24	1	1	2	6	0	2	n/a	1_2.gif
25	1	2	2	4	0.432	4	1	2_2.gif
26	1	1	2	1	0.647	1	1	1_2.gif
27	1	3	2	6	0	2	n/a	3_2.gif
28	1	4	2	2	0.061	1	0	4_2.gif
29	1	2	2	6	0	3	n/a	2_2.gif
30	1	1	2	3	0.381	4	0	1_2.gif
31	1	3	2	6	0	2	n/a	3_2.gif
32	1	1	0	1	0.739	1	1	1_0.gif
33	1	2	0	2	0.409	2	1	2_0.gif
34	1	4	0	4	0.448	4	1	4_0.gif
35	1	1	0	1	0.437	1	1	1_0.gif
36.001	1	3	0	3	0.468	3	1	3_0.gif
37.001	1	2	0	2	0.406	2	1	2_0.gif
38.001	1	1	0	1	0.416	1	1	1_0.gif
39.001	1	4	0	4	0.346	4	1	4_0.gif
40.001	1	1	0	1	0.365	1	1	1_0.gif
41.001	1	2	0	2	0.389	2	1	2_0.gif
42.001	1	1	0	1	0.414	1	1	1_0.gif
43.001	1	4	0	4	0.482	4	1	4_0.gif
44.001	1	3	0	3	0.384	3	1	3_0.gif
45.001	1	4	0	4	0.456	4	1	4_0.gif
46.001	1	2	0	2	0.446	2	1	2_0.gif
47.001	1	3	0	3	0.497	3	1	3_0.gif
48.001	1	2	2	6	0	2	n/a	2_2.gif
49.001	1	1	2	6	0	3	n/a	1_2.gif
50.001	1	4	2	2	0.361	2	1	4_2.gif
51.001	1	2	2	1	0.439	1	1	2_2.gif
52.001	1	3	2	6	0	4	n/a	3_2.gif
53.001	1	2	2	4	0.211	2	0	2_2.gif
54.001	1	4	2	6	0	3	n/a	4_2.gif
55.001	1	3	2	3	0.212	2	0	3_2.gif
56.001	1	4	2	2	0.812	4	0	4_2.gif
57.001	1	2	2	2	0.007	3	0	2_2.gif
58.001	1	3	2	6	0	4	n/a	3_2.gif
59.001	1	1	2	6	0	2	n/a	1_2.gif
60.001	1	4	2	3	0.499	3	1	4_2.gif
61.001	1	3	2	6	0	1	n/a	3_2.gif
62.001	1	1	2	1	0.212	4	0	1_2.gif
63.001	1	3	2	4	0.825	3	0	3_2.gif
64.001	1	2	0	4	0.007	2	0	2_0.gif
65.001	1	1	0	1	0.463	1	1	1_0.gif
66.001	1	3	0	3	0.411	3	1	3_0.gif
67.001	1	1	0	1	0.502	1	1	1_0.gif
68.003	1	3	0	3	0.504	3	1	3_0.gif
69.003	1	4	0	4	0.433	4	1	4_0.gif
70.003	1	2	0	2	0.404	2	1	2_0.gif
71.003	1	4	0	4	0.445	4	1	4_0.gif
72.003	1	1	0	1	0.513	1	1	1_0.gif
73.003	1	4	0	4	0.429	4	1	4_0.gif
74.003	1	2	0	2	0.456	2	1	2_0.gif
75.003	1	1	0	1	0.417	1	1	1_0.gif
76.003	1	3	0	3	0.367	3	1	3_0.gif
77.003	1	1	0	1	0.479	1	1	1_0.gif
78.003	1	3	0	3	0.393	3	1	3_0.gif
79.003	1	2	0	2	0.276	2	1	2_0.gif
80.003	1	4	2	6	0	3	n/a	4_2.gif
81.003	1	1	2	6	0	2	n/a	1_2.gif
82.003	1	3	2	4	0.268	4	1	3_2.gif
83.003	1	2	2	1	0.552	1	1	2_2.gif
84.003	1	3	2	3	0.691	3	1	3_2.gif
85.003	1	4	2	3	0.007	2	0	4_2.gif
86.003	1	1	2	2	0.313	3	0	1_2.gif
87.003	1	2	2	3	0.617	4	0	2_2.gif
88.003	1	1	2	6	0	1	n/a	1_2.gif
89.004	1	2	2	6	0	2	n/a	2_2.gif
90.004	1	3	2	1	0.295	1	1	3_2.gif
91.004	1	4	2	6	0	2	n/a	4_2.gif
92.004	1	1	2	3	0.344	3	1	1_2.gif
93.004	1	2	2	6	0	4	n/a	2_2.gif
94.004	1	3	2	6	0	1	n/a	3_2.gif
95.004	1	4	2	6	0	2	n/a	4_2.gif
96.004	1	1	0	2	0.298	1	0	1_0.gif
97.004	1	3	0	3	0.461	3	1	3_0.gif
98.004	1	4	0	4	0.471	4	1	4_0.gif
99.004	1	2	0	2	0.331	2	1	2_0.gif
100.004	1	3	0	3	0.405	3	1	3_0.gif
101.004	1	1	0	1	0.363	1	1	1_0.gif
102.004	1	3	0	3	0.484	3	1	3_0.gif
103.004	1	4	0	4	0.577	4	1	4_0.gif
104.004	1	3	0	3	0.529	3	1	3_0.gif
105.004	1	1	0	1	0.657	1	1	1_0.gif
106.004	1	3	0	3	0.654	3	1	3_0.gif
107.004	1	1	0	1	0.493	1	1	1_0.gif
108.004	1	2	0	2	0.386	2	1	2_0.gif
109.004	1	3	0	3	0.408	3	1	3_0.gif
110.004	1	2	0	2	0.396	2	1	2_0.gif
111.004	1	1	0	1	0.299	1	1	1_0.gif
112.005	1	2	2	2	0.384	2	1	2_2.gif
113.005	1	4	2	6	0	1	n/a	4_2.gif
114.005	1	1	2	2	0.399	2	1	1_2.gif
115.005	1	3	2	4	0.277	4	1	3_2.gif
116.005	1	4	2	1	0.559	1	1	4_2.gif
117.005	1	2	2	3	0.695	3	1	2_2.gif
118.005	1	3	2	4	0.729	4	1	3_2.gif
119.005	1	2	2	2	0.849	2	1	2_2.gif
120.005	1	4	2	2	0.006	3	0	4_2.gif
121.005	1	1	2	3	0.007	2	0	1_2.gif
122.005	1	3	2	4	0.878	4	1	3_2.gif
123.005	1	1	2	4	0.006	1	0	1_2.gif
124.005	1	2	2	1	0.034	3	0	2_2.gif
125.005	1	1	2	3	0.006	1	0	1_2.gif
126.005	1	3	2	2	0.006	2	1	3_2.gif
127.005	1	2	2	1	0.404	1	1	2_2.gif
128.005	1	3	0	3	0.355	3	1	3_0.gif
129.005	1	2	0	2	0.335	2	1	2_0.gif
130.005	1	3	0	3	0.418	3	1	3_0.gif
131.005	1	1	0	1	0.411	1	1	1_0.gif
132.005	1	4	0	4	0.418	4	1	4_0.gif
133.005	1	1	0	1	0.407	1	1	1_0.gif
134.005	1	2	0	2	0.348	2	1	2_0.gif
135.005	1	3	0	3	0.328	3	1	3_0.gif
136.005	1	4	0	4	0.483	4	1	4_0.gif
137.005	1	2	0	2	0.47	2	1	2_0.gif
138.005	1	1	0	1	0.495	1	1	1_0.gif
139.005	1	4	0	4	0.695	4	1	4_0.gif
140.005	1	2	0	2	0.472	2	1	2_0.gif
141.005	1	3	0	3	0.537	3	1	3_0.gif
142.005	1	4	0	4	0.566	4	1	4_0.gif
143.005	1	1	0	1	0.42	1	1	1_0.gif
144.006	1	4	2	6	0	4	n/a	4_2.gif
145.006	1	2	2	6	0	1	n/a	2_2.gif
146.006	1	4	2	4	0.195	4	1	4_2.gif
147.006	1	2	2	2	0.189	2	1	2_2.gif
148.006	1	1	2	4	0.522	4	1	1_2.gif
149.006	1	2	2	2	0.704	2	1	2_2.gif
150.006	1	4	2	1	0.648	1	1	4_2.gif
151.006	1	2	2	2	0.771	2	1	2_2.gif
152.006	1	3	2	2	0.007	4	0	3_2.gif
153.006	1	2	2	4	0.107	2	0	2_2.gif
154.006	1	4	2	2	0.12	3	0	4_2.gif
155.006	1	3	2	3	0.076	2	0	3_2.gif
156.006	1	2	2	2	0.026	4	0	2_2.gif
157.006	1	4	2	3	0.025	3	1	4_2.gif
158.006	1	2	2	2	0.007	2	1	2_2.gif
159.006	1	1	2	4	0.128	4	1	1_2.gif
160.006	1	2	0	2	0.259	2	1	2_0.gif
161.006	1	3	0	3	0.498	3	1	3_0.gif
162.006	1	4	0	4	0.549	4	1	4_0.gif
163.008	1	2	0	2	0.538	2	1	2_0.gif
164.008	1	3	0	3	0.49	3	1	3_0.gif
165.008	1	1	0	1	0.392	1	1	1_0.gif
166.008	1	3	0	3	0.476	3	1	3_0.gif
167.008	1	4	0	4	0.532	4	1	4_0.gif
168.008	1	1	0	1	0.451	1	1	1_0.gif
169.008	1	3	0	3	0.527	3	1	3_0.gif
170.008	1	1	0	1	0.445	1	1	1_0.gif
171.008	1	3	0	3	0.484	3	1	3_0.gif
172.008	1	1	0	1	0.43	1	1	1_0.gif
173.008	1	2	0	2	0.449	2	1	2_0.gif
174.008	1	3	0	3	0.471	3	1	3_0.gif
175.008	1	2	0	2	0.395	2	1	2_0.gif
176.008	1	4	2	6	0	3	n/a	4_2.gif
177.008	1	3	2	6	0	2	n/a	3_2.gif
178.008	1	4	2	4	0.19	4	1	4_2.gif
179.008	1	3	2	3	0.288	3	1	3_2.gif
180.008	1	4	2	4	0.592	4	1	4_2.gif
181.008	1	1	2	6	0	3	n/a	1_2.gif
182.008	1	3	2	3	0.287	4	0	3_2.gif
183.008	1	2	2	2	0.937	1	0	2_2.gif
184.008	1	3	2	2	0.007	3	0	3_2.gif
185.008	1	1	2	6	0	2	n/a	1_2.gif
186.008	1	4	2	6	0	3	n/a	4_2.gif
187.009	1	1	2	1	0.302	1	1	1_2.gif
188.009	1	3	2	4	0.308	4	1	3_2.gif
189.009	1	4	2	1	0.491	1	1	4_2.gif
190.009	1	1	2	4	0.437	3	0	1_2.gif
191.009	1	2	2	3	0.453	4	0	2_2.gif
192.009	1	1	0	1	0.446	1	1	1_0.gif
193.009	1	4	0	4	0.497	4	1	4_0.gif
194.009	1	3	0	3	0.506	3	1	3_0.gif
195.01	1	2	0	2	0.344	2	1	2_0.gif
196.01	1	4	0	4	0.42	4	1	4_0.gif
197.01	1	2	0	2	0.418	2	1	2_0.gif
198.01	1	3	0	3	0.488	3	1	3_0.gif
199.01	1	1	0	1	0.465	1	1	1_0.gif
200.01	1	3	0	3	0.443	3	1	3_0.gif
201.01	1	2	0	2	0.422	2	1	2_0.gif
202.01	1	3	0	6	0	3	n/a	3_0.gif
203.01	1	2	0	2	0.341	2	1	2_0.gif
204.01	1	1	0	1	0.462	1	1	1_0.gif
205.01	1	3	0	3	0.436	3	1	3_0.gif
206.01	1	1	0	1	0.444	1	1	1_0.gif
207.01	1	4	0	4	0.515	4	1	4_0.gif
208.01	1	3	2	6	0	1	n/a	3_2.gif
209.01	1	4	2	6	0	4	n/a	4_2.gif
210.01	1	3	2	3	0.225	3	1	3_2.gif
211.01	1	4	2	4	0.384	4	1	4_2.gif
212.01	1	1	2	3	0.646	3	1	1_2.gif
213.01	1	4	2	4	0.555	4	1	4_2.gif
214.01	1	3	2	1	0.519	1	1	3_2.gif
215.01	1	2	2	4	0.466	4	1	2_2.gif
216.012	1	4	2	1	0.47	3	0	4_2.gif
217.012	1	1	2	3	0.435	2	0	1_2.gif
218.012	1	2	2	2	0.481	4	0	2_2.gif
219.012	1	3	2	3	0.409	1	0	3_2.gif
220.012	1	2	2	1	0.84	2	0	2_2.gif
221.012	1	3	2	1	0.006	3	0	3_2.gif
222.012	1	2	2	6	0	2	n/a	2_2.gif
223.012	1	3	2	2	0.75	3	0	3_2.gif
224.012	1	1	0	1	0.713	1	1	1_0.gif
225.012	1	4	0	4	0.521	4	1	4_0.gif
226.012	1	3	0	6	0	3	n/a	3_0.gif
227.012	1	2	0	2	0.388	2	1	2_0.gif
228.012	1	4	0	4	0.51	4	1	4_0.gif
229.012	1	2	0	2	0.531	2	1	2_0.gif
230.012	1	4	0	4	0.4	4	1	4_0.gif
231.012	1	1	0	1	0.483	1	1	1_0.gif
232.012	1	2	0	2	0.365	2	1	2_0.gif
233.012	1	1	0	1	0.414	1	1	1_0.gif
234.012	1	3	0	3	0.411	3	1	3_0.gif
235.012	1	4	0	4	0.243	4	1	4_0.gif
236.012	1	2	0	2	0.361	2	1	2_0.gif
237.013	1	1	0	1	0.399	1	1	1_0.gif
238.013	1	3	0	3	0.396	3	1	3_0.gif
239.013	1	1	0	1	0.414	1	1	1_0.gif
240.013	1	2	2	6	0	3	n/a	2_2.gif
241.013	1	4	2	2	0.708	1	0	4_2.gif
242.013	1	1	2	6	0	2	n/a	1_2.gif
243.013	1	3	2	4	0.158	4	1	3_2.gif
244.013	1	2	2	1	0.452	1	1	2_2.gif
245.013	1	1	2	6	0	3	n/a	1_2.gif
246.013	1	4	2	2	0.476	2	1	4_2.gif
247.013	1	1	2	6	0	1	n/a	1_2.gif
248.013	1	2	2	4	0.413	4	1	2_2.gif
249.013	1	1	2	1	0.878	1	1	1_2.gif
250.013	1	4	2	1	0.007	2	0	4_2.gif
251.013	1	3	2	2	0.006	1	0	3_2.gif
252.013	1	4	2	6	0	4	n/a	4_2.gif
253.013	1	2	2	4	0.175	3	0	2_2.gif
254.013	1	3	2	3	0.007	4	0	3_2.gif
255.013	1	2	2	2	0.255	2	1	2_2.gif
