onset	duration	nback_display	trial_type	response	response_time	correct_response	correct	stim_file
0	1	2	0	2	0.907	2	1	2_0.gif
1	1	4	0	2	0.009	4	0	4_0.gif
2	1	2	0	4	0.008	2	0	2_0.gif
3	1	1	0	1	0.462	1	1	1_0.gif
4	1	2	0	2	0.352	2	1	2_0.gif
5	1	3	0	3	0.372	3	1	3_0.gif
6	1	1	0	1	0.514	1	1	1_0.gif
7	1	3	0	3	0.526	3	1	3_0.gif
8	1	4	0	4	0.528	4	1	4_0.gif
9	1	3	0	4	0.106	3	0	3_0.gif
10	1	4	0	4	0.607	4	1	4_0.gif
11	1	1	0	1	0.41	1	1	1_0.gif
12	1	4	0	4	0.486	4	1	4_0.gif
13	1	1	0	1	0.398	1	1	1_0.gif
14	1	4	0	4	0.331	4	1	4_0.gif
15	1	1	0	1	0.408	1	1	1_0.gif
16	1	3	2	6	0	4	n/a	3_2.gif
17	1	4	2	6	0	1	n/a	4_2.gif
18	1	1	2	6	0	3	n/a	1_2.gif
19	1	3	2	4	0.112	4	1	3_2.gif
20	1	4	2	1	0.034	1	1	4_2.gif
21	1	3	2	3	0.009	3	1	3_2.gif
22	1	4	2	4	0.045	4	1	4_2.gif
23	1	1	2	3	0.009	3	1	1_2.gif
24	1	2	2	1	0.591	4	0	2_2.gif
25	1	3	2	2	0.384	1	0	3_2.gif
26	1	1	2	3	0.371	2	0	1_2.gif
27	1	3	2	1	0.329	3	0	3_2.gif
28	1	1	2	3	0.603	1	0	1_2.gif
29	1	3	2	6	0	3	n/a	3_2.gif
30	1	1	2	1	0.249	1	1	1_2.gif
31	1	4	2	3	0.704	3	1	4_2.gif
32.001	1	3	0	6	0	3	n/a	3_0.gif
33.001	1	2	0	3	0.295	2	0	2_0.gif
34.001	1	3	0	2	0.008	3	0	3_0.gif
35.001	1	2	0	2	0.438	2	1	2_0.gif
36.001	1	3	0	3	0.475	3	1	3_0.gif
37.001	1	2	0	2	0.499	2	1	2_0.gif
38.001	1	1	0	1	0.441	1	1	1_0.gif
39.001	1	2	0	2	0.562	2	1	2_0.gif
40.001	1	4	0	4	0.516	4	1	4_0.gif
41.001	1	1	0	1	0.455	1	1	1_0.gif
42.001	1	2	0	2	0.403	2	1	2_0.gif
43.001	1	3	0	3	0.356	3	1	3_0.gif
44.001	1	2	0	2	0.292	2	1	2_0.gif
45.001	1	4	0	4	0.559	4	1	4_0.gif
46.001	1	1	0	1	0.413	1	1	1_0.gif
47.001	1	4	0	4	0.523	4	1	4_0.gif
48.001	1	3	2	6	0	1	n/a	3_2.gif
49.001	1	2	2	6	0	4	n/a	2_2.gif
50.002	1	3	2	3	0.531	3	1	3_2.gif
51.002	1	2	2	2	0.361	2	1	2_2.gif
52.002	1	1	2	3	0.477	3	1	1_2.gif
53.002	1	2	2	2	0.599	2	1	2_2.gif
54.002	1	3	2	1	0.553	1	1	3_2.gif
55.002	1	2	2	2	0.421	2	1	2_2.gif
56.002	1	1	2	3	0.155	3	1	1_2.gif
57.002	1	3	2	2	0.294	2	1	3_2.gif
58.002	1	4	2	1	0.24	1	1	4_2.gif
59.002	1	1	2	3	0.165	3	1	1_2.gif
60.002	1	3	2	4	0.135	4	1	3_2.gif
61.002	1	1	2	1	0.267	1	1	1_2.gif
62.002	1	2	2	3	0.029	3	1	2_2.gif
63.002	1	4	2	1	0.008	1	1	4_2.gif
64.002	1	2	0	4	0.607	2	0	2_0.gif
65.002	1	3	0	2	0.152	3	0	3_0.gif
66.002	1	2	0	2	0.453	2	1	2_0.gif
67.002	1	3	0	3	0.411	3	1	3_0.gif
68.002	1	4	0	4	0.388	4	1	4_0.gif
69.002	1	3	0	3	0.456	3	1	3_0.gif
70.002	1	1	0	1	0.53	1	1	1_0.gif
71.002	1	4	0	4	0.461	4	1	4_0.gif
72.002	1	1	0	1	0.498	1	1	1_0.gif
73.002	1	2	0	2	0.341	2	1	2_0.gif
74.002	1	3	0	3	0.308	3	1	3_0.gif
75.002	1	1	0	1	0.433	1	1	1_0.gif
76.002	1	4	0	4	0.458	4	1	4_0.gif
77.002	1	3	0	3	0.467	3	1	3_0.gif
78.002	1	2	0	2	0.372	2	1	2_0.gif
79.002	1	4	0	4	0.742	4	1	4_0.gif
80.003	1	2	2	6	0	2	n/a	2_2.gif
81.003	1	4	2	6	0	4	n/a	4_2.gif
82.003	1	1	2	2	0.281	2	1	1_2.gif
83.003	1	4	2	4	0.072	4	1	4_2.gif
84.003	1	3	2	1	0.333	1	1	3_2.gif
85.003	1	4	2	4	0.16	4	1	4_2.gif
86.003	1	3	2	3	0.236	3	1	3_2.gif
87.003	1	4	2	4	0.234	4	1	4_2.gif
88.003	1	2	2	3	0.32	3	1	2_2.gif
89.003	1	4	2	4	0.12	4	1	4_2.gif
90.003	1	1	2	2	0.008	2	1	1_2.gif
91.003	1	2	2	1	0.86	4	0	2_2.gif
92.003	1	1	2	1	0.009	1	1	1_2.gif
93.003	1	4	2	1	0.375	2	0	4_2.gif
94.003	1	3	2	4	0.404	1	0	3_2.gif
95.003	1	1	2	3	0.55	4	0	1_2.gif
96.004	1	2	0	6	0	2	n/a	2_0.gif
97.004	1	3	0	2	0.184	3	0	3_0.gif
98.004	1	4	0	3	0.009	4	0	4_0.gif
99.004	1	3	0	3	0.524	3	1	3_0.gif
100.004	1	4	0	4	0.508	4	1	4_0.gif
101.004	1	2	0	2	0.416	2	1	2_0.gif
102.004	1	4	0	4	0.52	4	1	4_0.gif
103.004	1	2	0	2	0.473	2	1	2_0.gif
104.004	1	1	0	1	0.867	1	1	1_0.gif
105.004	1	2	0	1	0.008	2	0	2_0.gif
106.004	1	1	0	1	0.54	1	1	1_0.gif
107.004	1	4	0	4	0.551	4	1	4_0.gif
108.004	1	2	0	2	0.37	2	1	2_0.gif
109.004	1	3	0	3	0.335	3	1	3_0.gif
110.004	1	1	0	1	0.608	1	1	1_0.gif
111.004	1	3	0	3	0.569	3	1	3_0.gif
112.005	1	4	2	6	0	1	n/a	4_2.gif
113.005	1	3	2	6	0	3	n/a	3_2.gif
114.005	1	1	2	4	0.035	4	1	1_2.gif
115.005	1	3	2	3	0.29	3	1	3_2.gif
116.005	1	1	2	1	0.307	1	1	1_2.gif
117.005	1	4	2	3	0.197	3	1	4_2.gif
118.005	1	1	2	1	0.082	1	1	1_2.gif
119.005	1	2	2	4	0.008	4	1	2_2.gif
120.005	1	3	2	1	0.22	1	1	3_2.gif
121.005	1	4	2	6	0	2	n/a	4_2.gif
122.005	1	1	2	3	0.236	3	1	1_2.gif
123.005	1	2	2	4	0.008	4	1	2_2.gif
124.005	1	1	2	2	0.624	1	0	1_2.gif
125.005	1	2	2	6	0	2	n/a	2_2.gif
126.005	1	4	2	1	0.507	1	1	4_2.gif
127.005	1	2	2	2	0.228	2	1	2_2.gif
128.005	1	3	0	4	0.427	3	0	3_0.gif
129.005	1	2	0	3	0.165	2	0	2_0.gif
130.005	1	4	0	4	0.578	4	1	4_0.gif
131.005	1	2	0	2	0.432	2	1	2_0.gif
132.005	1	4	0	4	0.53	4	1	4_0.gif
133.005	1	3	0	3	0.438	3	1	3_0.gif
134.006	1	4	0	4	0.425	4	1	4_0.gif
135.006	1	2	0	2	0.306	2	1	2_0.gif
136.006	1	3	0	3	0.329	3	1	3_0.gif
137.006	1	1	0	1	0.498	1	1	1_0.gif
138.006	1	4	0	4	0.425	4	1	4_0.gif
139.006	1	2	0	2	0.344	2	1	2_0.gif
140.006	1	4	0	4	0.473	4	1	4_0.gif
141.006	1	3	0	3	0.431	3	1	3_0.gif
142.006	1	1	0	1	0.523	1	1	1_0.gif
143.006	1	4	0	4	0.531	4	1	4_0.gif
144.006	1	1	2	6	0	1	n/a	1_2.gif
145.006	1	2	2	6	0	4	n/a	2_2.gif
146.006	1	4	2	1	0.663	1	1	4_2.gif
147.006	1	3	2	2	0.76	2	1	3_2.gif
148.006	1	1	2	4	0.732	4	1	1_2.gif
149.006	1	2	2	3	0.712	3	1	2_2.gif
150.006	1	3	2	1	0.635	1	1	3_2.gif
151.006	1	1	2	2	0.333	2	1	1_2.gif
152.006	1	3	2	3	0.31	3	1	3_2.gif
153.006	1	1	2	6	0	1	n/a	1_2.gif
154.006	1	3	2	1	0.097	3	0	3_2.gif
155.006	1	4	2	6	0	1	n/a	4_2.gif
156.006	1	1	2	3	0.422	3	1	1_2.gif
157.006	1	4	2	4	0.184	4	1	4_2.gif
158.006	1	1	2	1	0.423	1	1	1_2.gif
159.006	1	2	2	4	0.264	4	1	2_2.gif
160.007	1	1	0	1	0.335	1	1	1_0.gif
161.007	1	2	0	2	0.49	2	1	2_0.gif
162.007	1	4	0	4	0.52	4	1	4_0.gif
163.007	1	3	0	3	0.37	3	1	3_0.gif
164.007	1	2	0	2	0.417	2	1	2_0.gif
165.007	1	1	0	1	0.508	1	1	1_0.gif
166.007	1	2	0	2	0.457	2	1	2_0.gif
167.007	1	1	0	1	0.543	1	1	1_0.gif
168.007	1	2	0	2	0.389	2	1	2_0.gif
169.007	1	3	0	3	0.39	3	1	3_0.gif
170.007	1	4	0	4	0.314	4	1	4_0.gif
171.007	1	3	0	3	0.653	3	1	3_0.gif
172.007	1	1	0	1	0.599	1	1	1_0.gif
173.007	1	2	0	2	0.301	2	1	2_0.gif
174.007	1	1	0	1	0.461	1	1	1_0.gif
175.007	1	3	0	3	0.366	3	1	3_0.gif
176.008	1	4	2	6	0	1	n/a	4_2.gif
177.008	1	1	2	6	0	3	n/a	1_2.gif
178.008	1	3	2	4	0.269	4	1	3_2.gif
179.008	1	1	2	1	0.263	1	1	1_2.gif
180.008	1	3	2	3	0.153	3	1	3_2.gif
181.008	1	1	2	1	0.185	1	1	1_2.gif
182.008	1	3	2	3	0.257	3	1	3_2.gif
183.008	1	1	2	1	0.311	1	1	1_2.gif
184.008	1	3	2	3	0.41	3	1	3_2.gif
185.008	1	2	2	6	0	1	n/a	2_2.gif
186.008	1	4	2	6	0	3	n/a	4_2.gif
187.008	1	2	2	1	0.564	2	0	2_2.gif
188.008	1	1	2	3	0.008	4	0	1_2.gif
189.008	1	2	2	2	0.067	2	1	2_2.gif
190.008	1	3	2	2	0.281	1	0	3_2.gif
191.008	1	1	2	6	0	2	n/a	1_2.gif
192.008	1	3	0	3	0.11	3	1	3_0.gif
193.008	1	4	0	4	0.786	4	1	4_0.gif
194.008	1	3	0	4	0.009	3	0	3_0.gif
195.008	1	4	0	4	0.558	4	1	4_0.gif
196.008	1	1	0	1	0.455	1	1	1_0.gif
197.008	1	4	0	4	0.444	4	1	4_0.gif
198.008	1	1	0	1	0.601	1	1	1_0.gif
199.008	1	4	0	4	0.402	4	1	4_0.gif
200.008	1	1	0	1	0.465	1	1	1_0.gif
201.008	1	3	0	3	0.354	3	1	3_0.gif
202.008	1	4	0	4	0.555	4	1	4_0.gif
203.008	1	1	0	1	0.578	1	1	1_0.gif
204.008	1	3	0	3	0.405	3	1	3_0.gif
205.008	1	4	0	4	0.357	4	1	4_0.gif
206.008	1	3	0	3	0.409	3	1	3_0.gif
207.008	1	4	0	4	0.587	4	1	4_0.gif
208.009	1	1	2	6	0	3	n/a	1_2.gif
209.009	1	2	2	1	0.959	4	0	2_2.gif
210.009	1	3	2	1	0.008	1	1	3_2.gif
211.009	1	1	2	3	0.008	2	0	1_2.gif
212.009	1	3	2	3	0.608	3	1	3_2.gif
213.009	1	1	2	1	0.503	1	1	1_2.gif
214.009	1	3	2	3	0.565	3	1	3_2.gif
215.009	1	1	2	1	0.302	1	1	1_2.gif
216.009	1	4	2	3	0.788	3	1	4_2.gif
217.009	1	3	2	1	0.711	1	1	3_2.gif
218.009	1	2	2	4	0.608	4	1	2_2.gif
219.009	1	3	2	3	0.424	3	1	3_2.gif
220.009	1	2	2	2	0.189	2	1	2_2.gif
221.009	1	3	2	3	0.817	3	1	3_2.gif
222.009	1	2	2	3	0.008	2	0	2_2.gif
223.009	1	1	2	3	0.574	3	1	1_2.gif
224.011	1	2	0	6	0	2	n/a	2_0.gif
225.011	1	4	0	2	0.097	4	0	4_0.gif
226.011	1	1	0	4	0.008	1	0	1_0.gif
227.011	1	2	0	2	0.433	2	1	2_0.gif
228.011	1	3	0	3	0.335	3	1	3_0.gif
229.011	1	2	0	2	0.488	2	1	2_0.gif
230.011	1	4	0	4	0.434	4	1	4_0.gif
231.011	1	1	0	1	0.471	1	1	1_0.gif
232.011	1	4	0	4	0.663	4	1	4_0.gif
233.011	1	3	0	3	0.365	3	1	3_0.gif
234.011	1	2	0	2	0.318	2	1	2_0.gif
235.011	1	3	0	3	0.379	3	1	3_0.gif
236.011	1	2	0	2	0.375	2	1	2_0.gif
237.011	1	1	0	1	0.481	1	1	1_0.gif
238.011	1	2	0	2	0.393	2	1	2_0.gif
239.011	1	3	0	3	0.37	3	1	3_0.gif
240.011	1	2	2	6	0	2	n/a	2_2.gif
241.011	1	1	2	6	0	3	n/a	1_2.gif
242.011	1	3	2	2	0.27	2	1	3_2.gif
243.011	1	4	2	1	0.11	1	1	4_2.gif
244.011	1	1	2	3	0.392	3	1	1_2.gif
245.011	1	3	2	4	0.281	4	1	3_2.gif
246.011	1	1	2	1	0.369	1	1	1_2.gif
247.011	1	2	2	3	0.102	3	1	2_2.gif
248.011	1	4	2	4	0.114	1	0	4_2.gif
249.011	1	2	2	1	0.009	2	0	2_2.gif
250.011	1	3	2	2	0.707	4	0	3_2.gif
251.011	1	2	2	4	0.315	2	0	2_2.gif
252.011	1	3	2	6	0	3	n/a	3_2.gif
253.011	1	4	2	2	0.097	2	1	4_2.gif
254.011	1	3	2	3	0.009	3	1	3_2.gif
255.011	1	1	2	4	0.009	4	1	1_2.gif
