onset	duration	nback_display	trial_type	response	response_time	correct_response	correct	stim_file
0	1	1	0	1	0.627	1	1	1_0.gif
1	1	2	0	2	0.716	2	1	2_0.gif
2	1	1	0	2	0.016	1	0	1_0.gif
3	1	4	0	4	0.698	4	1	4_0.gif
4	1	1	0	4	0.015	1	0	1_0.gif
5	1	2	0	2	0.361	2	1	2_0.gif
6	1	1	0	1	0.386	1	1	1_0.gif
7	1	2	0	2	0.327	2	1	2_0.gif
8	1	3	0	3	0.431	3	1	3_0.gif
9	1	4	0	4	0.29	4	1	4_0.gif
10	1	1	0	1	0.408	1	1	1_0.gif
11	1	3	0	3	0.563	3	1	3_0.gif
12	1	1	0	1	0.526	1	1	1_0.gif
13	1	3	0	3	0.616	3	1	3_0.gif
14	1	4	0	4	0.504	4	1	4_0.gif
15	1	2	0	2	0.492	2	1	2_0.gif
16.002	1	1	2	6	0	4	n/a	1_2.gif
17.002	1	2	2	6	0	2	n/a	2_2.gif
18.002	1	3	2	1	0.553	1	1	3_2.gif
19.002	1	4	2	2	0.467	2	1	4_2.gif
20.002	1	3	2	3	0.428	3	1	3_2.gif
21.002	1	4	2	4	0.259	4	1	4_2.gif
22.002	1	3	2	3	0.204	3	1	3_2.gif
23.002	1	1	2	4	0.168	4	1	1_2.gif
24.002	1	4	2	3	0.124	3	1	4_2.gif
25.002	1	2	2	1	0.066	1	1	2_2.gif
26.002	1	4	2	4	0.114	4	1	4_2.gif
27.002	1	1	2	2	0.015	2	1	1_2.gif
28.002	1	2	2	4	0.103	4	1	2_2.gif
29.002	1	4	2	1	0.081	1	1	4_2.gif
30.002	1	3	2	2	0.015	2	1	3_2.gif
31.002	1	2	2	4	0.015	4	1	2_2.gif
32.003	1	4	0	3	0.016	4	0	4_0.gif
33.003	1	2	0	4	0.014	2	0	2_0.gif
34.003	1	1	0	2	0.016	1	0	1_0.gif
35.003	1	4	0	1	0.016	4	0	4_0.gif
36.003	1	1	0	4	0.017	1	0	1_0.gif
37.003	1	3	0	3	0.376	3	1	3_0.gif
38.003	1	4	0	4	0.368	4	1	4_0.gif
39.003	1	3	0	3	0.361	3	1	3_0.gif
40.003	1	2	0	2	0.345	2	1	2_0.gif
41.003	1	4	0	4	0.387	4	1	4_0.gif
42.003	1	2	0	2	0.412	2	1	2_0.gif
43.003	1	3	0	3	0.293	3	1	3_0.gif
44.003	1	1	0	1	0.286	1	1	1_0.gif
45.004	1	4	0	4	0.282	4	1	4_0.gif
46.004	1	2	0	2	0.301	2	1	2_0.gif
47.004	1	3	0	3	0.297	3	1	3_0.gif
48.005	1	1	2	6	0	2	n/a	1_2.gif
49.005	1	2	2	6	0	3	n/a	2_2.gif
50.006	1	1	2	1	0.127	1	1	1_2.gif
51.007	1	4	2	2	0.085	2	1	4_2.gif
52.007	1	2	2	1	0.015	1	1	2_2.gif
53.007	1	4	2	4	0.113	4	1	4_2.gif
54.007	1	2	2	2	0.018	2	1	2_2.gif
55.007	1	4	2	4	0.058	4	1	4_2.gif
56.007	1	2	2	2	0.06	2	1	2_2.gif
57.007	1	1	2	4	0.189	4	1	1_2.gif
58.007	1	2	2	2	0.239	2	1	2_2.gif
59.007	1	1	2	1	0.091	1	1	1_2.gif
60.007	1	2	2	2	0.129	2	1	2_2.gif
61.007	1	1	2	1	0.537	1	1	1_2.gif
62.007	1	3	2	1	0.648	2	0	3_2.gif
63.007	1	2	2	1	0.016	1	1	2_2.gif
64.008	1	3	0	3	0.808	3	1	3_0.gif
65.008	1	2	0	3	0.015	2	0	2_0.gif
66.008	1	1	0	1	0.307	1	1	1_0.gif
67.008	1	2	0	2	0.362	2	1	2_0.gif
68.008	1	4	0	4	0.476	4	1	4_0.gif
69.008	1	3	0	3	0.335	3	1	3_0.gif
70.008	1	4	0	4	0.407	4	1	4_0.gif
71.008	1	2	0	2	0.33	2	1	2_0.gif
72.008	1	1	0	1	0.358	1	1	1_0.gif
73.008	1	3	0	3	0.308	3	1	3_0.gif
74.008	1	4	0	4	0.269	4	1	4_0.gif
75.008	1	2	0	2	0.237	2	1	2_0.gif
76.008	1	4	0	4	0.456	4	1	4_0.gif
77.008	1	1	0	1	0.357	1	1	1_0.gif
78.008	1	4	0	4	0.368	4	1	4_0.gif
79.008	1	2	0	2	0.316	2	1	2_0.gif
80.01	1	3	2	6	0	4	n/a	3_2.gif
81.01	1	4	2	6	0	2	n/a	4_2.gif
82.01	1	3	2	3	0.179	3	1	3_2.gif
83.01	1	1	2	4	0.158	4	1	1_2.gif
84.01	1	2	2	3	0.145	3	1	2_2.gif
85.01	1	3	2	1	0.201	1	1	3_2.gif
86.01	1	2	2	2	0.036	2	1	2_2.gif
87.01	1	1	2	3	0.322	3	1	1_2.gif
88.01	1	3	2	2	0.251	2	1	3_2.gif
89.01	1	1	2	1	0.29	1	1	1_2.gif
90.01	1	3	2	3	0.294	3	1	3_2.gif
91.01	1	4	2	1	0.296	1	1	4_2.gif
92.01	1	2	2	3	0.171	3	1	2_2.gif
93.01	1	1	2	4	0.021	4	1	1_2.gif
94.01	1	4	2	2	0.018	2	1	4_2.gif
95.01	1	2	2	1	0.056	1	1	2_2.gif
96.011	1	3	0	4	0.02	3	0	3_0.gif
97.011	1	4	0	3	0.015	4	0	4_0.gif
98.011	1	2	0	4	0.015	2	0	2_0.gif
99.011	1	3	0	2	0.017	3	0	3_0.gif
100.011	1	4	0	3	0.017	4	0	4_0.gif
101.011	1	3	0	4	0.017	3	0	3_0.gif
102.011	1	2	0	4	0.219	2	0	2_0.gif
103.011	1	1	0	1	0.296	1	1	1_0.gif
104.011	1	3	0	3	0.356	3	1	3_0.gif
105.011	1	4	0	4	0.306	4	1	4_0.gif
106.011	1	1	0	1	0.267	1	1	1_0.gif
107.011	1	3	0	3	0.344	3	1	3_0.gif
108.011	1	1	0	1	0.443	1	1	1_0.gif
109.011	1	3	0	3	0.393	3	1	3_0.gif
110.012	1	1	0	1	0.267	1	1	1_0.gif
111.012	1	2	0	2	0.372	2	1	2_0.gif
112.015	1	4	2	6	0	1	n/a	4_2.gif
113.015	1	2	2	6	0	2	n/a	2_2.gif
114.015	1	3	2	4	0.172	4	1	3_2.gif
115.015	1	1	2	2	0.2	2	1	1_2.gif
116.015	1	3	2	3	0.014	3	1	3_2.gif
117.015	1	1	2	1	0.015	1	1	1_2.gif
118.015	1	3	2	3	0.152	3	1	3_2.gif
119.015	1	4	2	1	0.268	1	1	4_2.gif
120.015	1	1	2	3	0.125	3	1	1_2.gif
121.015	1	4	2	4	0.015	4	1	4_2.gif
122.015	1	1	2	1	0.014	1	1	1_2.gif
123.015	1	2	2	4	0.134	4	1	2_2.gif
124.015	1	4	2	1	0.155	1	1	4_2.gif
125.015	1	1	2	2	0.112	2	1	1_2.gif
126.015	1	3	2	4	0.174	4	1	3_2.gif
127.015	1	2	2	1	0.136	1	1	2_2.gif
128.016	1	1	0	3	0.121	1	0	1_0.gif
129.016	1	3	0	1	0.09	3	0	3_0.gif
130.016	1	4	0	4	0.26	4	1	4_0.gif
131.016	1	1	0	1	0.337	1	1	1_0.gif
132.016	1	2	0	2	0.358	2	1	2_0.gif
133.016	1	1	0	1	0.391	1	1	1_0.gif
134.016	1	4	0	4	0.346	4	1	4_0.gif
135.016	1	3	0	3	0.377	3	1	3_0.gif
136.016	1	2	0	2	0.33	2	1	2_0.gif
137.016	1	1	0	1	0.284	1	1	1_0.gif
138.016	1	3	0	3	0.258	3	1	3_0.gif
139.016	1	1	0	1	0.354	1	1	1_0.gif
140.016	1	3	0	3	0.367	3	1	3_0.gif
141.016	1	4	0	4	0.429	4	1	4_0.gif
142.016	1	3	0	3	0.441	3	1	3_0.gif
143.016	1	1	0	1	0.338	1	1	1_0.gif
144.018	1	2	2	6	0	3	n/a	2_2.gif
145.018	1	1	2	6	0	1	n/a	1_2.gif
146.018	1	4	2	2	0.165	2	1	4_2.gif
147.018	1	3	2	1	0.057	1	1	3_2.gif
148.018	1	4	2	4	0.153	4	1	4_2.gif
149.018	1	1	2	3	0.122	3	1	1_2.gif
150.018	1	4	2	4	0.015	4	1	4_2.gif
151.018	1	1	2	1	0.016	1	1	1_2.gif
152.018	1	4	2	4	0.042	4	1	4_2.gif
153.018	1	3	2	1	0.287	1	1	3_2.gif
154.018	1	4	2	4	0.015	4	1	4_2.gif
155.018	1	1	2	3	0.014	3	1	1_2.gif
156.018	1	3	2	4	0.016	4	1	3_2.gif
157.019	1	4	2	1	0.015	1	1	4_2.gif
158.019	1	2	2	3	0.014	3	1	2_2.gif
159.019	1	4	2	4	0.014	4	1	4_2.gif
160.021	1	2	0	2	0.016	2	1	2_0.gif
161.021	1	4	0	2	0.014	4	0	4_0.gif
162.021	1	1	0	2	0.227	1	0	1_0.gif
163.022	1	3	0	3	0.329	3	1	3_0.gif
164.024	1	4	0	4	0.238	4	1	4_0.gif
165.024	1	1	0	1	0.248	1	1	1_0.gif
166.024	1	4	0	4	0.33	4	1	4_0.gif
167.026	1	2	0	2	0.372	2	1	2_0.gif
168.026	1	4	0	4	0.506	4	1	4_0.gif
169.026	1	2	0	2	0.311	2	1	2_0.gif
170.026	1	3	0	3	0.394	3	1	3_0.gif
171.028	1	1	0	1	0.298	1	1	1_0.gif
172.028	1	2	0	2	0.31	2	1	2_0.gif
173.028	1	1	0	1	0.4	1	1	1_0.gif
174.028	1	4	0	4	0.395	4	1	4_0.gif
175.028	1	3	0	3	0.37	3	1	3_0.gif
176.028	1	2	2	6	0	4	n/a	2_2.gif
177.028	1	1	2	2	0.93	3	0	1_2.gif
178.028	1	4	2	2	0.015	2	1	4_2.gif
179.028	1	1	2	1	0.106	1	1	1_2.gif
180.028	1	4	2	4	0.144	4	1	4_2.gif
181.028	1	3	2	1	0.083	1	1	3_2.gif
182.028	1	4	2	3	0.04	4	0	4_2.gif
183.028	1	2	2	4	0.099	3	0	2_2.gif
184.028	1	4	2	2	0.2	4	0	4_2.gif
185.028	1	3	2	4	0.015	2	0	3_2.gif
186.028	1	4	2	2	0.017	4	0	4_2.gif
187.028	1	1	2	3	0.121	3	1	1_2.gif
188.028	1	2	2	4	0.063	4	1	2_2.gif
189.028	1	4	2	1	0.015	1	1	4_2.gif
190.028	1	3	2	2	0.016	2	1	3_2.gif
191.028	1	1	2	4	0.015	4	1	1_2.gif
192.03	1	2	0	3	0.082	2	0	2_0.gif
193.03	1	1	0	2	0.017	1	0	1_0.gif
194.03	1	4	0	4	0.372	4	1	4_0.gif
195.03	1	1	0	1	0.346	1	1	1_0.gif
196.03	1	2	0	2	0.403	2	1	2_0.gif
197.03	1	1	0	1	0.384	1	1	1_0.gif
198.03	1	2	0	2	0.375	2	1	2_0.gif
199.03	1	3	0	3	0.473	3	1	3_0.gif
200.03	1	4	0	4	0.424	4	1	4_0.gif
201.03	1	1	0	1	0.291	1	1	1_0.gif
202.03	1	3	0	4	0.214	3	0	3_0.gif
203.03	1	1	0	1	0.393	1	1	1_0.gif
204.03	1	3	0	3	0.32	3	1	3_0.gif
205.03	1	4	0	4	0.407	4	1	4_0.gif
206.03	1	2	0	2	0.304	2	1	2_0.gif
207.03	1	1	0	1	0.399	1	1	1_0.gif
208.031	1	2	2	6	0	2	n/a	2_2.gif
209.031	1	3	2	6	0	1	n/a	3_2.gif
210.031	1	4	2	2	0.123	2	1	4_2.gif
211.031	1	3	2	3	0.095	3	1	3_2.gif
212.031	1	4	2	4	0.015	4	1	4_2.gif
213.031	1	3	2	3	0.035	3	1	3_2.gif
214.031	1	1	2	4	0.147	4	1	1_2.gif
215.031	1	4	2	3	0.315	3	1	4_2.gif
216.031	1	2	2	1	0.015	1	1	2_2.gif
217.031	1	4	2	4	0.015	4	1	4_2.gif
218.031	1	1	2	2	0.016	2	1	1_2.gif
219.031	1	2	2	4	0.015	4	1	2_2.gif
220.031	1	4	2	1	0.015	1	1	4_2.gif
221.031	1	3	2	2	0.018	2	1	3_2.gif
222.031	1	2	2	4	0.014	4	1	2_2.gif
223.031	1	4	2	3	0.175	3	1	4_2.gif
224.032	1	2	0	4	0.136	2	0	2_0.gif
225.032	1	1	0	2	0.151	1	0	1_0.gif
226.032	1	4	0	1	0.015	4	0	4_0.gif
227.032	1	1	0	1	0.329	1	1	1_0.gif
228.032	1	3	0	3	0.361	3	1	3_0.gif
229.032	1	4	0	4	0.393	4	1	4_0.gif
230.032	1	3	0	3	0.396	3	1	3_0.gif
231.032	1	2	0	2	0.334	2	1	2_0.gif
232.032	1	4	0	4	0.393	4	1	4_0.gif
233.032	1	2	0	2	0.347	2	1	2_0.gif
234.032	1	3	0	3	0.35	3	1	3_0.gif
235.032	1	1	0	1	0.325	1	1	1_0.gif
236.032	1	4	0	4	0.258	4	1	4_0.gif
237.032	1	2	0	2	0.292	2	1	2_0.gif
238.032	1	3	0	3	0.324	3	1	3_0.gif
239.032	1	1	0	1	0.465	1	1	1_0.gif
240.033	1	2	2	6	0	3	n/a	2_2.gif
241.033	1	1	2	2	0.98	1	0	1_2.gif
242.033	1	4	2	2	0.015	2	1	4_2.gif
243.033	1	2	2	1	0.044	1	1	2_2.gif
244.033	1	4	2	4	0.126	4	1	4_2.gif
245.033	1	2	2	2	0.054	2	1	2_2.gif
246.033	1	4	2	4	0.067	4	1	4_2.gif
247.033	1	2	2	2	0.226	2	1	2_2.gif
248.033	1	1	2	4	0.238	4	1	1_2.gif
249.033	1	2	2	2	0.087	2	1	2_2.gif
250.033	1	1	2	1	0.014	1	1	1_2.gif
251.033	1	2	2	2	0.026	2	1	2_2.gif
252.033	1	1	2	1	0.017	1	1	1_2.gif
253.033	1	3	2	2	0.015	2	1	3_2.gif
254.033	1	2	2	1	0.017	1	1	2_2.gif
255.033	1	3	2	3	0.015	3	1	3_2.gif
