onset	duration	nback_display	trial_type	response	response_time	correct_response	correct	stim_file
0	1	4	0	6	0	4	n/a	4_0.gif
1	1	2	0	4	0.372	2	0	2_0.gif
2	1	1	0	2	0.016	1	0	1_0.gif
3	1	4	0	6	0	4	n/a	4_0.gif
4.001	1	3	0	3	0.681	3	1	3_0.gif
5.001	1	4	0	4	0.784	4	1	4_0.gif
6.001	1	1	0	4	0.015	1	0	1_0.gif
7.001	1	4	0	1	0.017	4	0	4_0.gif
8.001	1	1	0	4	0.018	1	0	1_0.gif
9.001	1	2	0	1	0.015	2	0	2_0.gif
10.001	1	4	0	4	0.863	4	1	4_0.gif
11.001	1	1	0	4	0.015	1	0	1_0.gif
12.001	1	2	0	2	0.497	2	1	2_0.gif
13.001	1	3	0	3	0.441	3	1	3_0.gif
14.001	1	2	0	2	0.443	2	1	2_0.gif
15.001	1	3	0	3	0.428	3	1	3_0.gif
16.002	1	2	2	6	0	2	n/a	2_2.gif
17.002	1	3	2	6	0	3	n/a	3_2.gif
18.002	1	1	2	6	0	2	n/a	1_2.gif
19.002	1	4	2	2	0.069	3	0	4_2.gif
20.002	1	3	2	1	0.281	1	1	3_2.gif
21.002	1	4	2	4	0.112	4	1	4_2.gif
22.002	1	1	2	3	0.026	3	1	1_2.gif
23.002	1	4	2	6	0	4	n/a	4_2.gif
24.002	1	2	2	6	0	1	n/a	2_2.gif
25.002	1	4	2	1	0.471	4	0	4_2.gif
26.002	1	3	2	2	0.475	2	1	3_2.gif
27.002	1	1	2	4	0.041	4	1	1_2.gif
28.002	1	2	2	3	0.015	3	1	2_2.gif
29.002	1	4	2	1	0.25	1	1	4_2.gif
30.002	1	1	2	4	0.296	2	0	1_2.gif
31.002	1	2	2	6	0	4	n/a	2_2.gif
32.002	1	3	0	3	0.931	3	1	3_0.gif
33.002	1	1	0	3	0.016	1	0	1_0.gif
34.002	1	4	0	1	0.091	4	0	4_0.gif
35.002	1	1	0	4	0.016	1	0	1_0.gif
36.002	1	4	0	4	0.634	4	1	4_0.gif
37.002	1	3	0	3	0.546	3	1	3_0.gif
38.002	1	4	0	6	0	4	n/a	4_0.gif
39.002	1	2	0	2	0.541	2	1	2_0.gif
40.002	1	3	0	3	0.464	3	1	3_0.gif
41.002	1	4	0	6	0	4	n/a	4_0.gif
42.002	1	1	0	1	0.59	1	1	1_0.gif
43.002	1	2	0	2	0.456	2	1	2_0.gif
44.002	1	3	0	3	0.428	3	1	3_0.gif
45.002	1	4	0	4	0.639	4	1	4_0.gif
46.002	1	3	0	3	0.669	3	1	3_0.gif
47.002	1	4	0	6	0	4	n/a	4_0.gif
48.003	1	1	2	6	0	3	n/a	1_2.gif
49.003	1	2	2	6	0	4	n/a	2_2.gif
50.003	1	4	2	1	0.441	1	1	4_2.gif
51.003	1	1	2	2	0.015	2	1	1_2.gif
52.003	1	4	2	1	0.126	4	0	4_2.gif
53.003	1	3	2	3	0.961	1	0	3_2.gif
54.003	1	1	2	3	0.016	4	0	1_2.gif
55.003	1	3	2	6	0	3	n/a	3_2.gif
56.003	1	2	2	6	0	1	n/a	2_2.gif
57.003	1	3	2	6	0	3	n/a	3_2.gif
58.003	1	1	2	1	0.523	2	0	1_2.gif
59.003	1	4	2	2	0.016	3	0	4_2.gif
60.003	1	2	2	6	0	1	n/a	2_2.gif
61.003	1	4	2	4	0.09	4	1	4_2.gif
62.003	1	1	2	6	0	2	n/a	1_2.gif
63.003	1	4	2	1	0.209	4	0	4_2.gif
64.004	1	2	0	6	0	2	n/a	2_0.gif
65.004	1	1	0	2	0.027	1	0	1_0.gif
66.004	1	3	0	3	0.495	3	1	3_0.gif
67.004	1	1	0	6	0	1	n/a	1_0.gif
68.004	1	3	0	1	0.044	3	0	3_0.gif
69.004	1	2	0	2	0.485	2	1	2_0.gif
70.004	1	3	0	3	0.481	3	1	3_0.gif
71.004	1	1	0	1	0.512	1	1	1_0.gif
72.004	1	3	0	3	0.649	3	1	3_0.gif
73.004	1	4	0	4	0.689	4	1	4_0.gif
74.004	1	3	0	3	0.589	3	1	3_0.gif
75.004	1	2	0	2	0.587	2	1	2_0.gif
76.004	1	1	0	1	0.583	1	1	1_0.gif
77.004	1	3	0	3	0.459	3	1	3_0.gif
78.004	1	1	0	6	0	1	n/a	1_0.gif
79.004	1	3	0	3	0.514	3	1	3_0.gif
80.004	1	1	2	6	0	1	n/a	1_2.gif
81.004	1	2	2	6	0	3	n/a	2_2.gif
82.004	1	4	2	6	0	1	n/a	4_2.gif
83.005	1	2	2	1	0.035	2	0	2_2.gif
84.005	1	4	2	2	0.016	4	0	4_2.gif
85.005	1	1	2	4	0.021	2	0	1_2.gif
86.005	1	3	2	6	0	4	n/a	3_2.gif
87.005	1	4	2	1	0.02	1	1	4_2.gif
88.005	1	1	2	3	0.281	3	1	1_2.gif
89.005	1	2	2	4	0.381	4	1	2_2.gif
90.005	1	1	2	2	0.34	1	0	1_2.gif
91.005	1	4	2	1	0.47	2	0	4_2.gif
92.005	1	3	2	6	0	1	n/a	3_2.gif
93.005	1	1	2	6	0	4	n/a	1_2.gif
94.005	1	2	2	6	0	3	n/a	2_2.gif
95.005	1	3	2	6	0	1	n/a	3_2.gif
96.005	1	1	0	1	0.193	1	1	1_0.gif
97.005	1	2	0	6	0	2	n/a	2_0.gif
98.005	1	3	0	3	0.629	3	1	3_0.gif
99.005	1	2	0	2	0.669	2	1	2_0.gif
100.005	1	1	0	1	0.585	1	1	1_0.gif
101.005	1	2	0	2	0.643	2	1	2_0.gif
102.005	1	4	0	4	0.799	4	1	4_0.gif
103.005	1	2	0	4	0.014	2	0	2_0.gif
104.005	1	3	0	3	0.428	3	1	3_0.gif
105.005	1	4	0	6	0	4	n/a	4_0.gif
106.005	1	2	0	2	0.562	2	1	2_0.gif
107.005	1	4	0	4	0.97	4	1	4_0.gif
108.005	1	2	0	4	0.016	2	0	2_0.gif
109.005	1	4	0	6	0	4	n/a	4_0.gif
110.005	1	1	0	1	0.685	1	1	1_0.gif
111.005	1	3	0	3	0.394	3	1	3_0.gif
112.007	1	1	2	6	0	1	n/a	1_2.gif
113.007	1	2	2	6	0	3	n/a	2_2.gif
114.007	1	1	2	6	0	1	n/a	1_2.gif
115.007	1	2	2	6	0	2	n/a	2_2.gif
116.007	1	3	2	1	0.298	1	1	3_2.gif
117.007	1	2	2	2	0.096	2	1	2_2.gif
118.007	1	3	2	3	0.467	3	1	3_2.gif
119.007	1	4	2	2	0.764	2	1	4_2.gif
120.007	1	1	2	3	0.571	3	1	1_2.gif
121.007	1	2	2	1	0.389	4	0	2_2.gif
122.007	1	3	2	4	0.58	1	0	3_2.gif
123.007	1	2	2	1	0.454	2	0	2_2.gif
124.007	1	3	2	2	0.258	3	0	3_2.gif
125.007	1	4	2	3	0.261	2	0	4_2.gif
126.007	1	3	2	2	0.223	3	0	3_2.gif
127.007	1	4	2	3	0.69	4	0	4_2.gif
128.008	1	1	0	6	0	1	n/a	1_0.gif
129.008	1	4	0	1	0.541	4	0	4_0.gif
130.008	1	2	0	4	0.55	2	0	2_0.gif
131.008	1	4	0	6	0	4	n/a	4_0.gif
132.008	1	2	0	2	0.493	2	1	2_0.gif
133.008	1	4	0	4	0.724	4	1	4_0.gif
134.008	1	2	0	2	0.578	2	1	2_0.gif
135.008	1	4	0	4	0.611	4	1	4_0.gif
136.008	1	2	0	2	0.84	2	1	2_0.gif
137.008	1	4	0	4	0.778	4	1	4_0.gif
138.008	1	2	0	2	0.87	2	1	2_0.gif
139.008	1	1	0	2	0.016	1	0	1_0.gif
140.008	1	2	0	2	0.599	2	1	2_0.gif
141.008	1	4	0	6	0	4	n/a	4_0.gif
142.009	1	1	0	1	0.591	1	1	1_0.gif
143.009	1	3	0	3	0.493	3	1	3_0.gif
144.009	1	2	2	6	0	1	n/a	2_2.gif
145.009	1	3	2	6	0	3	n/a	3_2.gif
146.009	1	4	2	6	0	2	n/a	4_2.gif
147.009	1	2	2	2	0.016	3	0	2_2.gif
148.009	1	1	2	3	0.241	4	0	1_2.gif
149.009	1	3	2	6	0	2	n/a	3_2.gif
150.009	1	4	2	6	0	1	n/a	4_2.gif
151.009	1	1	2	1	0.303	3	0	1_2.gif
152.009	1	3	2	3	0.608	4	0	3_2.gif
153.009	1	1	2	1	0.924	1	1	1_2.gif
154.009	1	3	2	1	0.014	3	0	3_2.gif
155.009	1	1	2	3	0.368	1	0	1_2.gif
156.009	1	2	2	2	0.769	3	0	2_2.gif
157.009	1	3	2	6	0	1	n/a	3_2.gif
158.009	1	2	2	6	0	2	n/a	2_2.gif
159.009	1	4	2	2	0.962	3	0	4_2.gif
160.01	1	1	0	2	0.015	1	0	1_0.gif
161.01	1	4	0	1	0.112	4	0	4_0.gif
162.01	1	1	0	4	0.015	1	0	1_0.gif
163.01	1	3	0	1	0.015	3	0	3_0.gif
164.01	1	4	0	6	0	4	n/a	4_0.gif
165.01	1	2	0	2	0.457	2	1	2_0.gif
166.01	1	3	0	3	0.41	3	1	3_0.gif
167.01	1	2	0	2	0.568	2	1	2_0.gif
168.01	1	4	0	4	0.701	4	1	4_0.gif
169.01	1	1	0	1	0.622	1	1	1_0.gif
170.01	1	4	0	4	0.661	4	1	4_0.gif
171.01	1	1	0	1	0.62	1	1	1_0.gif
172.01	1	4	0	4	0.624	4	1	4_0.gif
173.01	1	3	0	3	0.478	3	1	3_0.gif
174.01	1	1	0	1	0.548	1	1	1_0.gif
175.01	1	3	0	3	0.504	3	1	3_0.gif
176.01	1	2	2	2	0.503	1	0	2_2.gif
177.01	1	3	2	6	0	3	n/a	3_2.gif
178.01	1	1	2	2	0.786	2	1	1_2.gif
179.01	1	3	2	2	0.016	3	0	3_2.gif
180.01	1	2	2	3	0.458	1	0	2_2.gif
181.01	1	3	2	1	0.671	3	0	3_2.gif
182.01	1	4	2	2	0.69	2	1	4_2.gif
183.01	1	3	2	3	0.6	3	1	3_2.gif
184.01	1	1	2	6	0	4	n/a	1_2.gif
185.01	1	3	2	6	0	3	n/a	3_2.gif
186.01	1	1	2	1	0.078	1	1	1_2.gif
187.01	1	4	2	3	0.854	3	1	4_2.gif
188.01	1	2	2	3	0.016	1	0	2_2.gif
189.01	1	1	2	4	0.269	4	1	1_2.gif
190.01	1	4	2	6	0	2	n/a	4_2.gif
191.011	1	3	2	4	0.039	1	0	3_2.gif
192.011	1	4	0	6	0	4	n/a	4_0.gif
193.011	1	1	0	6	0	1	n/a	1_0.gif
194.012	1	4	0	1	0.069	4	0	4_0.gif
195.013	1	1	0	4	0.014	1	0	1_0.gif
196.013	1	2	0	1	0.207	2	0	2_0.gif
197.014	1	4	0	6	0	4	n/a	4_0.gif
198.015	1	1	0	1	0.897	1	1	1_0.gif
199.015	1	2	0	1	0.014	2	0	2_0.gif
200.015	1	3	0	2	0.015	3	0	3_0.gif
201.015	1	2	0	3	0.016	2	0	2_0.gif
202.015	1	3	0	3	0.499	3	1	3_0.gif
203.015	1	2	0	2	0.468	2	1	2_0.gif
204.015	1	3	0	3	0.39	3	1	3_0.gif
205.015	1	1	0	1	0.637	1	1	1_0.gif
206.016	1	4	0	4	0.689	4	1	4_0.gif
207.016	1	3	0	3	0.558	3	1	3_0.gif
208.018	1	4	2	6	0	4	n/a	4_2.gif
209.019	1	1	2	6	0	3	n/a	1_2.gif
210.019	1	4	2	4	0.626	4	1	4_2.gif
211.019	1	2	2	1	0.706	1	1	2_2.gif
212.019	1	4	2	4	0.732	4	1	4_2.gif
213.019	1	3	2	2	0.609	2	1	3_2.gif
214.019	1	1	2	6	0	4	n/a	1_2.gif
215.019	1	2	2	3	0.538	3	1	2_2.gif
216.019	1	4	2	1	0.541	1	1	4_2.gif
217.019	1	1	2	2	0.577	2	1	1_2.gif
218.019	1	2	2	4	0.44	4	1	2_2.gif
219.019	1	3	2	2	0.488	1	0	3_2.gif
220.019	1	1	2	6	0	2	n/a	1_2.gif
221.019	1	4	2	6	0	3	n/a	4_2.gif
222.019	1	1	2	3	0.047	1	0	1_2.gif
223.019	1	4	2	4	0.496	4	1	4_2.gif
224.02	1	3	0	1	0.506	3	0	3_0.gif
225.02	1	4	0	3	0.34	4	0	4_0.gif
226.02	1	2	0	4	0.106	2	0	2_0.gif
227.02	1	3	0	3	0.413	3	1	3_0.gif
228.02	1	4	0	4	0.641	4	1	4_0.gif
229.02	1	1	0	1	0.623	1	1	1_0.gif
230.02	1	2	0	2	0.443	2	1	2_0.gif
231.02	1	3	0	3	0.485	3	1	3_0.gif
232.02	1	4	0	6	0	4	n/a	4_0.gif
233.02	1	3	0	3	0.574	3	1	3_0.gif
234.02	1	4	0	4	0.621	4	1	4_0.gif
235.02	1	1	0	1	0.695	1	1	1_0.gif
236.02	1	2	0	2	0.625	2	1	2_0.gif
237.02	1	4	0	4	0.714	4	1	4_0.gif
238.02	1	1	0	1	0.736	1	1	1_0.gif
239.02	1	4	0	4	0.737	4	1	4_0.gif
240.021	1	3	2	6	0	1	n/a	3_2.gif
241.022	1	1	2	6	0	4	n/a	1_2.gif
242.022	1	3	2	3	0.668	3	1	3_2.gif
243.022	1	2	2	6	0	1	n/a	2_2.gif
244.022	1	3	2	1	0.19	3	0	3_2.gif
245.022	1	1	2	3	0.364	2	0	1_2.gif
246.022	1	4	2	1	0.512	3	0	4_2.gif
247.022	1	2	2	2	0.297	1	0	2_2.gif
248.022	1	4	2	3	0.278	4	0	4_2.gif
249.022	1	1	2	1	0.616	2	0	1_2.gif
250.022	1	4	2	4	0.37	4	1	4_2.gif
251.022	1	2	2	2	0.896	1	0	2_2.gif
252.022	1	1	2	2	0.015	4	0	1_2.gif
253.022	1	3	2	6	0	2	n/a	3_2.gif
254.022	1	1	2	3	0.154	1	0	1_2.gif
255.022	1	3	2	1	0.468	3	0	3_2.gif
