onset	duration	nback_display	trial_type	response	response_time	correct_response	correct	stim_file
0	1	2	0	2	0.741	2	1	2_0.gif
1	1	1	0	2	0.003	1	0	1_0.gif
2	1	3	0	3	0.358	3	1	3_0.gif
3	1	2	0	2	0.386	2	1	2_0.gif
4	1	1	0	1	0.419	1	1	1_0.gif
5	1	2	0	2	0.418	2	1	2_0.gif
6	1	3	0	3	0.442	3	1	3_0.gif
7	1	2	0	2	0.358	2	1	2_0.gif
8	1	4	0	4	0.573	4	1	4_0.gif
9	1	1	0	1	0.318	1	1	1_0.gif
10	1	4	0	4	0.479	4	1	4_0.gif
11	1	3	0	3	0.352	3	1	3_0.gif
12	1	4	0	4	0.498	4	1	4_0.gif
13	1	1	0	1	0.332	1	1	1_0.gif
14	1	4	0	4	0.491	4	1	4_0.gif
15	1	1	0	1	0.506	1	1	1_0.gif
16	1	3	2	3	0.518	4	0	3_2.gif
17	1	2	2	6	0	1	n/a	2_2.gif
18	1	1	2	3	0.238	3	1	1_2.gif
19	1	2	2	2	0.312	2	1	2_2.gif
20	1	4	2	1	0.416	1	1	4_2.gif
21	1	2	2	2	0.318	2	1	2_2.gif
22	1	4	2	4	0.276	4	1	4_2.gif
23	1	3	2	2	0.346	2	1	3_2.gif
24	1	1	2	4	0.29	4	1	1_2.gif
25	1	2	2	3	0.371	3	1	2_2.gif
26	1	4	2	1	0.45	1	1	4_2.gif
27	1	2	2	2	0.466	2	1	2_2.gif
28	1	1	2	4	0.423	4	1	1_2.gif
29	1	2	2	2	0.369	2	1	2_2.gif
30	1	4	2	1	0.498	1	1	4_2.gif
31	1	2	2	2	0.383	2	1	2_2.gif
32.001	1	3	0	3	0.768	3	1	3_0.gif
33.001	1	1	0	1	0.499	1	1	1_0.gif
34.001	1	4	0	4	0.508	4	1	4_0.gif
35.001	1	2	0	2	0.372	2	1	2_0.gif
36.001	1	3	0	3	0.328	3	1	3_0.gif
37.001	1	4	0	4	0.532	4	1	4_0.gif
38.001	1	2	0	2	0.352	2	1	2_0.gif
39.001	1	1	0	1	0.311	1	1	1_0.gif
40.001	1	2	0	2	0.381	2	1	2_0.gif
41.001	1	4	0	4	0.332	4	1	4_0.gif
42.001	1	1	0	1	0.372	1	1	1_0.gif
43.001	1	3	0	3	0.373	3	1	3_0.gif
44.001	1	4	0	4	0.431	4	1	4_0.gif
45.001	1	2	0	2	0.319	2	1	2_0.gif
46.001	1	4	0	4	0.52	4	1	4_0.gif
47.001	1	1	0	1	0.426	1	1	1_0.gif
48.001	1	3	2	3	0.406	4	0	3_2.gif
49.001	1	2	2	6	0	1	n/a	2_2.gif
50.001	1	4	2	3	0.3	3	1	4_2.gif
51.001	1	2	2	2	0.299	2	1	2_2.gif
52.001	1	3	2	4	0.314	4	1	3_2.gif
53.001	1	4	2	2	0.401	2	1	4_2.gif
54.001	1	2	2	3	0.445	3	1	2_2.gif
55.001	1	3	2	4	0.41	4	1	3_2.gif
56.001	1	2	2	2	0.393	2	1	2_2.gif
57.001	1	1	2	3	0.383	3	1	1_2.gif
58.001	1	3	2	2	0.412	2	1	3_2.gif
59.001	1	1	2	1	0.448	1	1	1_2.gif
60.001	1	2	2	3	0.397	3	1	2_2.gif
61.001	1	3	2	1	0.397	1	1	3_2.gif
62.001	1	2	2	2	0.318	2	1	2_2.gif
63.001	1	1	2	3	0.436	3	1	1_2.gif
64.001	1	2	0	2	0.404	2	1	2_0.gif
65.001	1	3	0	3	0.371	3	1	3_0.gif
66.001	1	2	0	2	0.314	2	1	2_0.gif
67.001	1	4	0	4	0.492	4	1	4_0.gif
68.001	1	1	0	1	0.342	1	1	1_0.gif
69.001	1	3	0	3	0.381	3	1	3_0.gif
70.001	1	1	0	1	0.494	1	1	1_0.gif
71.001	1	4	0	4	0.383	4	1	4_0.gif
72.001	1	1	0	1	0.342	1	1	1_0.gif
73.001	1	2	0	2	0.337	2	1	2_0.gif
74.001	1	3	0	3	0.294	3	1	3_0.gif
75.001	1	1	0	1	0.362	1	1	1_0.gif
76.001	1	4	0	4	0.292	4	1	4_0.gif
77.001	1	1	0	1	0.418	1	1	1_0.gif
78.001	1	3	0	3	0.381	3	1	3_0.gif
79.001	1	2	0	2	0.272	2	1	2_0.gif
80.001	1	4	2	6	0	3	n/a	4_2.gif
81.001	1	1	2	6	0	2	n/a	1_2.gif
82.002	1	3	2	4	0.304	4	1	3_2.gif
83.002	1	1	2	1	0.222	1	1	1_2.gif
84.002	1	3	2	3	0.277	3	1	3_2.gif
85.002	1	4	2	1	0.377	1	1	4_2.gif
86.002	1	1	2	3	0.395	3	1	1_2.gif
87.002	1	2	2	4	0.361	4	1	2_2.gif
88.002	1	3	2	1	0.389	1	1	3_2.gif
89.002	1	4	2	2	0.323	2	1	4_2.gif
90.002	1	1	2	3	0.418	3	1	1_2.gif
91.002	1	4	2	4	0.315	4	1	4_2.gif
92.002	1	2	2	1	0.343	1	1	2_2.gif
93.002	1	3	2	4	0.371	4	1	3_2.gif
94.002	1	2	2	2	0.338	2	1	2_2.gif
95.002	1	1	2	3	0.365	3	1	1_2.gif
96.002	1	3	0	2	0.388	3	0	3_0.gif
97.002	1	4	0	4	0.499	4	1	4_0.gif
98.002	1	1	0	1	0.353	1	1	1_0.gif
99.002	1	3	0	3	0.35	3	1	3_0.gif
100.002	1	4	0	4	0.445	4	1	4_0.gif
101.002	1	1	0	1	0.38	1	1	1_0.gif
102.002	1	3	0	3	0.278	3	1	3_0.gif
103.002	1	4	0	4	0.431	4	1	4_0.gif
104.002	1	2	0	2	0.311	2	1	2_0.gif
105.002	1	4	0	4	0.488	4	1	4_0.gif
106.002	1	2	0	2	0.343	2	1	2_0.gif
107.002	1	4	0	4	0.418	4	1	4_0.gif
108.002	1	2	0	2	0.345	2	1	2_0.gif
109.002	1	4	0	4	0.401	4	1	4_0.gif
110.002	1	2	0	2	0.311	2	1	2_0.gif
111.002	1	3	0	3	0.264	3	1	3_0.gif
112.003	1	1	2	6	0	2	n/a	1_2.gif
113.003	1	3	2	6	0	3	n/a	3_2.gif
114.003	1	4	2	1	0.366	1	1	4_2.gif
115.003	1	2	2	3	0.251	3	1	2_2.gif
116.003	1	4	2	4	0.299	4	1	4_2.gif
117.003	1	1	2	2	0.337	2	1	1_2.gif
118.003	1	2	2	4	0.323	4	1	2_2.gif
119.003	1	1	2	1	0.371	1	1	1_2.gif
120.003	1	2	2	2	0.341	2	1	2_2.gif
121.003	1	3	2	1	0.406	1	1	3_2.gif
122.003	1	1	2	2	0.374	2	1	1_2.gif
123.003	1	3	2	3	0.313	3	1	3_2.gif
124.003	1	2	2	1	0.362	1	1	2_2.gif
125.003	1	4	2	3	0.292	3	1	4_2.gif
126.003	1	3	2	2	0.228	2	1	3_2.gif
127.003	1	2	2	4	0.248	4	1	2_2.gif
128.004	1	3	0	3	0.302	3	1	3_0.gif
129.004	1	1	0	1	0.48	1	1	1_0.gif
130.004	1	2	0	2	0.352	2	1	2_0.gif
131.004	1	3	0	3	0.326	3	1	3_0.gif
132.004	1	2	0	2	0.358	2	1	2_0.gif
133.004	1	1	0	1	0.363	1	1	1_0.gif
134.004	1	4	0	4	0.435	4	1	4_0.gif
135.004	1	2	0	2	0.288	2	1	2_0.gif
136.004	1	1	0	1	0.414	1	1	1_0.gif
137.004	1	3	0	3	0.35	3	1	3_0.gif
138.004	1	4	0	4	0.415	4	1	4_0.gif
139.004	1	3	0	3	0.35	3	1	3_0.gif
140.004	1	4	0	4	0.554	4	1	4_0.gif
141.004	1	3	0	3	0.334	3	1	3_0.gif
142.004	1	4	0	4	0.474	4	1	4_0.gif
143.004	1	3	0	3	0.403	3	1	3_0.gif
144.004	1	2	2	2	0.444	4	0	2_2.gif
145.004	1	3	2	6	0	3	n/a	3_2.gif
146.004	1	4	2	2	0.434	2	1	4_2.gif
147.004	1	1	2	3	0.271	3	1	1_2.gif
148.004	1	2	2	4	0.281	4	1	2_2.gif
149.004	1	3	2	1	0.412	1	1	3_2.gif
150.004	1	4	2	2	0.322	2	1	4_2.gif
151.004	1	3	2	3	0.362	3	1	3_2.gif
152.004	1	2	2	4	0.316	4	1	2_2.gif
153.004	1	4	2	3	0.356	3	1	4_2.gif
154.004	1	3	2	2	0.317	2	1	3_2.gif
155.004	1	1	2	4	0.29	4	1	1_2.gif
156.004	1	3	2	3	0.375	3	1	3_2.gif
157.004	1	1	2	1	0.359	1	1	1_2.gif
158.004	1	4	2	3	0.355	3	1	4_2.gif
159.004	1	1	2	1	0.38	1	1	1_2.gif
160.004	1	2	0	4	0.286	2	0	2_0.gif
161.004	1	3	0	3	0.281	3	1	3_0.gif
162.004	1	2	0	2	0.263	2	1	2_0.gif
163.004	1	1	0	1	0.292	1	1	1_0.gif
164.004	1	3	0	3	0.27	3	1	3_0.gif
165.004	1	4	0	4	0.498	4	1	4_0.gif
166.004	1	1	0	1	0.401	1	1	1_0.gif
167.004	1	2	0	2	0.379	2	1	2_0.gif
168.004	1	3	0	3	0.34	3	1	3_0.gif
169.004	1	1	0	1	0.49	1	1	1_0.gif
170.004	1	4	0	4	0.552	4	1	4_0.gif
171.004	1	2	0	2	0.331	2	1	2_0.gif
172.004	1	3	0	3	0.31	3	1	3_0.gif
173.004	1	2	0	2	0.423	2	1	2_0.gif
174.004	1	4	0	4	0.489	4	1	4_0.gif
175.004	1	2	0	2	0.392	2	1	2_0.gif
176.005	1	1	2	6	0	4	n/a	1_2.gif
177.005	1	4	2	6	0	2	n/a	4_2.gif
178.005	1	1	2	1	0.279	1	1	1_2.gif
179.005	1	4	2	4	0.289	4	1	4_2.gif
180.005	1	1	2	1	0.324	1	1	1_2.gif
181.005	1	3	2	4	0.355	4	1	3_2.gif
182.005	1	1	2	1	0.437	1	1	1_2.gif
183.005	1	4	2	3	0.438	3	1	4_2.gif
184.005	1	1	2	1	0.454	1	1	1_2.gif
185.005	1	4	2	4	0.503	4	1	4_2.gif
186.005	1	1	2	1	0.435	1	1	1_2.gif
187.005	1	3	2	4	0.456	4	1	3_2.gif
188.005	1	1	2	1	0.353	1	1	1_2.gif
189.005	1	4	2	3	0.306	3	1	4_2.gif
190.005	1	2	2	1	0.469	1	1	2_2.gif
191.005	1	1	2	6	0	4	n/a	1_2.gif
192.005	1	3	0	3	0.721	3	1	3_0.gif
193.005	1	2	0	2	0.381	2	1	2_0.gif
194.005	1	1	0	1	0.332	1	1	1_0.gif
195.005	1	2	0	2	0.358	2	1	2_0.gif
196.005	1	3	0	3	0.277	3	1	3_0.gif
197.005	1	2	0	2	0.317	2	1	2_0.gif
198.005	1	4	0	4	0.474	4	1	4_0.gif
199.005	1	1	0	1	0.241	1	1	1_0.gif
200.005	1	4	0	4	0.382	4	1	4_0.gif
201.005	1	3	0	3	0.264	3	1	3_0.gif
202.005	1	4	0	4	0.515	4	1	4_0.gif
203.005	1	1	0	1	0.397	1	1	1_0.gif
204.005	1	4	0	4	0.427	4	1	4_0.gif
205.005	1	1	0	1	0.486	1	1	1_0.gif
206.005	1	3	0	3	0.33	3	1	3_0.gif
207.005	1	2	0	2	0.338	2	1	2_0.gif
208.006	1	1	2	1	0.454	3	0	1_2.gif
209.006	1	2	2	6	0	2	n/a	2_2.gif
210.006	1	4	2	1	0.343	1	1	4_2.gif
211.006	1	2	2	2	0.287	2	1	2_2.gif
212.006	1	4	2	4	0.289	4	1	4_2.gif
213.006	1	3	2	2	0.38	2	1	3_2.gif
214.006	1	1	2	4	0.305	4	1	1_2.gif
215.006	1	2	2	2	0.308	3	0	2_2.gif
216.006	1	4	2	3	0.099	1	0	4_2.gif
217.006	1	2	2	1	0.18	2	0	2_2.gif
218.006	1	1	2	6	0	4	n/a	1_2.gif
219.006	1	2	2	6	0	2	n/a	2_2.gif
220.006	1	4	2	1	0.502	1	1	4_2.gif
221.006	1	2	2	2	0.281	2	1	2_2.gif
222.006	1	3	2	4	0.274	4	1	3_2.gif
223.006	1	1	2	2	0.305	2	1	1_2.gif
224.006	1	4	0	3	0.271	4	0	4_0.gif
225.006	1	2	0	2	0.594	2	1	2_0.gif
226.006	1	3	0	3	0.293	3	1	3_0.gif
227.006	1	4	0	4	0.492	4	1	4_0.gif
228.006	1	2	0	2	0.359	2	1	2_0.gif
229.006	1	1	0	1	0.347	1	1	1_0.gif
230.006	1	2	0	2	0.382	2	1	2_0.gif
231.006	1	4	0	4	0.415	4	1	4_0.gif
232.006	1	1	0	1	0.422	1	1	1_0.gif
233.006	1	3	0	3	0.27	3	1	3_0.gif
234.006	1	4	0	4	0.507	4	1	4_0.gif
235.006	1	2	0	2	0.306	2	1	2_0.gif
236.006	1	4	0	4	0.59	4	1	4_0.gif
237.006	1	1	0	1	0.38	1	1	1_0.gif
238.006	1	3	0	3	0.362	3	1	3_0.gif
239.006	1	2	0	2	0.313	2	1	2_0.gif
240.006	1	4	2	6	0	3	n/a	4_2.gif
241.006	1	2	2	6	0	2	n/a	2_2.gif
242.006	1	3	2	4	0.356	4	1	3_2.gif
243.006	1	4	2	2	0.256	2	1	4_2.gif
244.006	1	2	2	3	0.271	3	1	2_2.gif
245.006	1	3	2	4	0.285	4	1	3_2.gif
246.006	1	2	2	2	0.266	2	1	2_2.gif
247.006	1	1	2	3	0.329	3	1	1_2.gif
248.006	1	3	2	2	0.312	2	1	3_2.gif
249.006	1	1	2	1	0.339	1	1	1_2.gif
250.006	1	2	2	3	0.238	3	1	2_2.gif
251.006	1	3	2	1	0.278	1	1	3_2.gif
252.007	1	2	2	2	0.271	2	1	2_2.gif
253.007	1	1	2	3	0.2	3	1	1_2.gif
254.007	1	2	2	2	0.189	2	1	2_2.gif
255.007	1	3	2	1	0.3	1	1	3_2.gif
