onset	duration	nback_display	trial_type	response	response_time	correct_response	correct	stim_file
0	1	2	0	2	0.591	2	1	2_0.gif
1	1	3	0	3	0.316	3	1	3_0.gif
2	1	4	0	4	0.493	4	1	4_0.gif
3	1	1	0	1	0.469	1	1	1_0.gif
4	1	2	0	2	0.379	2	1	2_0.gif
5	1	3	0	3	0.414	3	1	3_0.gif
6	1	2	0	2	0.376	2	1	2_0.gif
7	1	3	0	3	0.417	3	1	3_0.gif
8	1	4	0	4	0.474	4	1	4_0.gif
9	1	2	0	2	0.364	2	1	2_0.gif
10	1	3	0	3	0.417	3	1	3_0.gif
11	1	4	0	4	0.427	4	1	4_0.gif
12	1	2	0	2	0.446	2	1	2_0.gif
13	1	4	0	4	0.435	4	1	4_0.gif
14	1	1	0	1	0.589	1	1	1_0.gif
15	1	4	0	4	0.408	4	1	4_0.gif
16	1	1	2	6	0	1	n/a	1_2.gif
17	1	3	2	6	0	4	n/a	3_2.gif
18	1	2	2	1	0.034	1	1	2_2.gif
19	1	4	2	3	0.008	3	1	4_2.gif
20	1	2	2	2	0.009	2	1	2_2.gif
21	1	3	2	4	0.008	4	1	3_2.gif
22	1	2	2	2	0.043	2	1	2_2.gif
23	1	4	2	3	0.049	3	1	4_2.gif
24	1	2	2	2	0.083	2	1	2_2.gif
25	1	1	2	4	0.059	4	1	1_2.gif
26	1	4	2	2	0.065	2	1	4_2.gif
27	1	1	2	1	0.529	1	1	1_2.gif
28	1	4	2	4	0.232	4	1	4_2.gif
29	1	3	2	1	0.212	1	1	3_2.gif
30	1	4	2	4	0.261	4	1	4_2.gif
31	1	2	2	3	0.154	3	1	2_2.gif
32	1	3	0	4	0.164	3	0	3_0.gif
33	1	1	0	1	0.408	1	1	1_0.gif
34	1	4	0	4	0.365	4	1	4_0.gif
35	1	3	0	3	0.32	3	1	3_0.gif
36.001	1	2	0	2	0.319	2	1	2_0.gif
37.001	1	3	0	3	0.295	3	1	3_0.gif
38.001	1	2	0	2	0.305	2	1	2_0.gif
39.001	1	1	0	1	0.321	1	1	1_0.gif
40.001	1	2	0	2	0.327	2	1	2_0.gif
41.001	1	4	0	4	0.463	4	1	4_0.gif
42.001	1	1	0	1	0.355	1	1	1_0.gif
43.001	1	3	0	3	0.341	3	1	3_0.gif
44.001	1	2	0	2	0.308	2	1	2_0.gif
45.001	1	4	0	4	0.287	4	1	4_0.gif
46.001	1	1	0	1	0.294	1	1	1_0.gif
47.001	1	2	0	2	0.33	2	1	2_0.gif
48.001	1	3	2	3	0.397	1	0	3_2.gif
49.001	1	2	2	6	0	2	n/a	2_2.gif
50.001	1	1	2	3	0.111	3	1	1_2.gif
51.001	1	4	2	2	0.094	2	1	4_2.gif
52.001	1	2	2	1	0.042	1	1	2_2.gif
53.001	1	3	2	4	0.124	4	1	3_2.gif
54.001	1	2	2	2	0.033	2	1	2_2.gif
55.001	1	1	2	3	0.082	3	1	1_2.gif
56.001	1	3	2	2	0.008	2	1	3_2.gif
57.001	1	1	2	1	0.008	1	1	1_2.gif
58.001	1	4	2	3	0.031	3	1	4_2.gif
59.001	1	1	2	1	0.008	1	1	1_2.gif
60.001	1	3	2	4	0.009	4	1	3_2.gif
61.001	1	2	2	1	0.009	1	1	2_2.gif
62.001	1	4	2	3	0.058	3	1	4_2.gif
63.001	1	2	2	2	0.01	2	1	2_2.gif
64.002	1	3	0	4	0.144	3	0	3_0.gif
65.002	1	2	0	2	0.296	2	1	2_0.gif
66.002	1	4	0	4	0.593	4	1	4_0.gif
67.002	1	3	0	3	0.31	3	1	3_0.gif
68.002	1	1	0	1	0.309	1	1	1_0.gif
69.002	1	4	0	4	0.334	4	1	4_0.gif
70.002	1	2	0	2	0.307	2	1	2_0.gif
71.002	1	3	0	3	0.331	3	1	3_0.gif
72.002	1	1	0	1	0.353	1	1	1_0.gif
73.002	1	4	0	4	0.415	4	1	4_0.gif
74.002	1	1	0	1	0.331	1	1	1_0.gif
75.002	1	3	0	3	0.358	3	1	3_0.gif
76.002	1	2	0	2	0.325	2	1	2_0.gif
77.002	1	4	0	4	0.388	4	1	4_0.gif
78.002	1	1	0	1	0.295	1	1	1_0.gif
79.002	1	3	0	3	0.326	3	1	3_0.gif
80.002	1	1	2	6	0	1	n/a	1_2.gif
81.002	1	3	2	6	0	3	n/a	3_2.gif
82.002	1	1	2	1	0.008	1	1	1_2.gif
83.002	1	3	2	3	0.008	3	1	3_2.gif
84.002	1	4	2	1	0.008	1	1	4_2.gif
85.002	1	2	2	3	0.009	3	1	2_2.gif
86.002	1	4	2	1	0.026	4	0	4_2.gif
87.002	1	2	2	4	0.049	2	0	2_2.gif
88.002	1	3	2	2	0.033	4	0	3_2.gif
89.002	1	1	2	4	0.139	2	0	1_2.gif
90.016	1	2	2	2	0.084	3	0	2_2.gif
91.016	1	3	2	3	0.147	1	0	3_2.gif
92.016	1	4	2	1	0.197	2	0	4_2.gif
93.016	1	3	2	2	0.086	3	0	3_2.gif
94.016	1	1	2	3	0.169	4	0	1_2.gif
95.016	1	3	2	4	0.145	3	0	3_2.gif
96.016	1	2	0	3	0.053	2	0	2_0.gif
97.016	1	1	0	1	0.577	1	1	1_0.gif
98.017	1	3	0	3	0.301	3	1	3_0.gif
99.017	1	4	0	4	0.306	4	1	4_0.gif
100.017	1	1	0	1	0.335	1	1	1_0.gif
101.017	1	3	0	3	0.311	3	1	3_0.gif
102.017	1	4	0	4	0.369	4	1	4_0.gif
103.017	1	1	0	1	0.293	1	1	1_0.gif
104.017	1	4	0	4	0.421	4	1	4_0.gif
105.017	1	3	0	3	0.364	3	1	3_0.gif
106.017	1	4	0	4	0.385	4	1	4_0.gif
107.017	1	2	0	2	0.346	2	1	2_0.gif
108.017	1	4	0	4	0.337	4	1	4_0.gif
109.017	1	1	0	1	0.279	1	1	1_0.gif
110.017	1	2	0	2	0.346	2	1	2_0.gif
111.017	1	4	0	4	0.399	4	1	4_0.gif
112.017	1	2	2	6	0	2	n/a	2_2.gif
113.017	1	4	2	2	0.996	4	0	4_2.gif
114.017	1	2	2	2	0.009	2	1	2_2.gif
115.017	1	3	2	4	0.056	4	1	3_2.gif
116.017	1	1	2	2	0.096	2	1	1_2.gif
117.017	1	3	2	3	0.111	3	1	3_2.gif
118.017	1	4	2	1	0.072	1	1	4_2.gif
119.017	1	3	2	3	0.088	3	1	3_2.gif
120.017	1	4	2	4	0.111	4	1	4_2.gif
121.017	1	1	2	3	0.157	3	1	1_2.gif
122.017	1	4	2	4	0.202	4	1	4_2.gif
123.017	1	1	2	1	0.344	1	1	1_2.gif
124.017	1	2	2	4	0.242	4	1	2_2.gif
125.017	1	1	2	1	0.197	1	1	1_2.gif
126.017	1	2	2	2	0.099	2	1	2_2.gif
127.017	1	3	2	1	0.082	1	1	3_2.gif
128.018	1	1	0	2	0.069	1	0	1_0.gif
129.018	1	2	0	1	0.008	2	0	2_0.gif
130.018	1	3	0	3	0.24	3	1	3_0.gif
131.018	1	1	0	1	0.25	1	1	1_0.gif
132.018	1	2	0	2	0.31	2	1	2_0.gif
133.018	1	4	0	4	0.395	4	1	4_0.gif
134.018	1	1	0	1	0.308	1	1	1_0.gif
135.018	1	2	0	2	0.331	2	1	2_0.gif
136.018	1	3	0	3	0.318	3	1	3_0.gif
137.018	1	2	0	2	0.295	2	1	2_0.gif
138.018	1	1	0	1	0.3	1	1	1_0.gif
139.018	1	4	0	4	0.384	4	1	4_0.gif
140.018	1	1	0	1	0.282	1	1	1_0.gif
141.018	1	4	0	4	0.686	4	1	4_0.gif
142.018	1	3	0	3	0.53	3	1	3_0.gif
143.018	1	4	0	2	0.354	4	0	4_0.gif
144.018	1	1	2	1	0.423	3	0	1_2.gif
145.018	1	4	2	6	0	4	n/a	4_2.gif
146.018	1	2	2	1	0.184	1	1	2_2.gif
147.018	1	4	2	4	0.19	4	1	4_2.gif
148.018	1	3	2	2	0.127	2	1	3_2.gif
149.018	1	2	2	4	0.081	4	1	2_2.gif
150.018	1	4	2	3	0.051	3	1	4_2.gif
151.018	1	2	2	2	0.009	2	1	2_2.gif
152.018	1	4	2	4	0.045	4	1	4_2.gif
153.018	1	1	2	2	0.062	2	1	1_2.gif
154.018	1	3	2	4	0.063	4	1	3_2.gif
155.018	1	1	2	2	0.056	1	0	1_2.gif
156.018	1	2	2	3	0.089	3	1	2_2.gif
157.018	1	4	2	6	0	1	n/a	4_2.gif
158.018	1	2	2	6	0	2	n/a	2_2.gif
159.018	1	3	2	4	0.432	4	1	3_2.gif
160.02	1	2	0	2	0.16	2	1	2_0.gif
161.02	1	1	0	2	0.009	1	0	1_0.gif
162.02	1	2	0	2	0.346	2	1	2_0.gif
163.02	1	1	0	1	0.271	1	1	1_0.gif
164.02	1	3	0	3	0.672	3	1	3_0.gif
165.02	1	4	0	4	0.555	4	1	4_0.gif
166.02	1	1	0	1	0.606	1	1	1_0.gif
167.02	1	4	0	4	0.516	4	1	4_0.gif
168.02	1	1	0	1	0.397	1	1	1_0.gif
169.02	1	3	0	3	0.342	3	1	3_0.gif
170.02	1	1	0	1	0.391	1	1	1_0.gif
171.02	1	2	0	2	0.313	2	1	2_0.gif
172.02	1	3	0	3	0.344	3	1	3_0.gif
173.02	1	2	0	2	0.312	2	1	2_0.gif
174.02	1	3	0	3	0.366	3	1	3_0.gif
175.02	1	1	0	1	0.401	1	1	1_0.gif
176.02	1	2	2	2	0.341	3	0	2_2.gif
177.02	1	3	2	6	0	1	n/a	3_2.gif
178.02	1	4	2	2	0.027	2	1	4_2.gif
179.02	1	2	2	3	0.075	3	1	2_2.gif
180.02	1	3	2	4	0.17	4	1	3_2.gif
181.02	1	4	2	3	0.165	2	0	4_2.gif
182.02	1	2	2	2	0.078	3	0	2_2.gif
183.02	1	1	2	3	0.098	4	0	1_2.gif
184.02	1	4	2	4	0.009	2	0	4_2.gif
185.02	1	1	2	2	0.009	1	0	1_2.gif
186.02	1	4	2	1	0.009	4	0	4_2.gif
187.02	1	1	2	4	0.02	1	0	1_2.gif
188.02	1	3	2	1	0.009	4	0	3_2.gif
189.02	1	1	2	4	0.009	1	0	1_2.gif
190.02	1	4	2	1	0.009	3	0	4_2.gif
191.02	1	1	2	3	0.009	1	0	1_2.gif
192.021	1	2	0	1	0.009	2	0	2_0.gif
193.021	1	1	0	1	0.288	1	1	1_0.gif
194.021	1	3	0	3	0.378	3	1	3_0.gif
195.021	1	1	0	1	0.604	1	1	1_0.gif
196.021	1	3	0	3	0.336	3	1	3_0.gif
197.021	1	2	0	2	0.28	2	1	2_0.gif
198.021	1	3	0	3	0.353	3	1	3_0.gif
199.021	1	4	0	4	0.432	4	1	4_0.gif
200.021	1	1	0	1	0.34	1	1	1_0.gif
201.021	1	2	0	2	0.314	2	1	2_0.gif
202.021	1	3	0	3	0.27	3	1	3_0.gif
203.021	1	2	0	2	0.308	2	1	2_0.gif
204.021	1	3	0	3	0.366	3	1	3_0.gif
205.021	1	4	0	4	0.416	4	1	4_0.gif
206.021	1	2	0	2	0.321	2	1	2_0.gif
207.021	1	3	0	3	0.312	3	1	3_0.gif
208.022	1	4	2	6	0	2	n/a	4_2.gif
209.022	1	2	2	4	0.908	3	0	2_2.gif
210.022	1	4	2	4	0.008	4	1	4_2.gif
211.022	1	1	2	2	0.029	2	1	1_2.gif
212.022	1	4	2	4	0.008	4	1	4_2.gif
213.022	1	1	2	2	0.012	1	0	1_2.gif
214.022	1	3	2	6	0	4	n/a	3_2.gif
215.022	1	2	2	6	0	1	n/a	2_2.gif
216.022	1	4	2	3	0.118	3	1	4_2.gif
217.022	1	2	2	2	0.012	2	1	2_2.gif
218.022	1	3	2	4	0.021	4	1	3_2.gif
219.022	1	2	2	2	0.051	2	1	2_2.gif
220.022	1	4	2	3	0.084	3	1	4_2.gif
221.022	1	2	2	2	0.067	2	1	2_2.gif
222.022	1	1	2	4	0.102	4	1	1_2.gif
223.022	1	4	2	2	0.008	2	1	4_2.gif
224.023	1	1	0	1	0.008	1	1	1_0.gif
225.023	1	4	0	1	0.009	4	0	4_0.gif
226.049	1	3	0	3	0.311	3	1	3_0.gif
227.049	1	4	0	4	0.487	4	1	4_0.gif
228.049	1	2	0	2	0.331	2	1	2_0.gif
229.049	1	3	0	2	0.009	3	0	3_0.gif
230.05	1	1	0	1	0.358	1	1	1_0.gif
231.05	1	4	0	4	0.299	4	1	4_0.gif
232.05	1	3	0	3	0.275	3	1	3_0.gif
233.05	1	2	0	2	0.303	2	1	2_0.gif
234.05	1	3	0	3	0.246	3	1	3_0.gif
235.05	1	2	0	2	0.275	2	1	2_0.gif
236.05	1	1	0	1	0.397	1	1	1_0.gif
237.05	1	2	0	2	0.299	2	1	2_0.gif
238.05	1	4	0	4	0.496	4	1	4_0.gif
239.05	1	1	0	1	0.334	1	1	1_0.gif
240.05	1	3	2	6	0	4	n/a	3_2.gif
241.05	1	2	2	6	0	1	n/a	2_2.gif
242.05	1	4	2	3	0.046	3	1	4_2.gif
243.05	1	1	2	2	0.009	2	1	1_2.gif
244.05	1	2	2	4	0.009	4	1	2_2.gif
245.05	1	3	2	1	0.034	1	1	3_2.gif
246.05	1	2	2	2	0.029	2	1	2_2.gif
247.05	1	1	2	3	0.01	3	1	1_2.gif
248.05	1	4	2	2	0.009	2	1	4_2.gif
249.05	1	2	2	1	0.009	1	1	2_2.gif
250.05	1	3	2	4	0.032	4	1	3_2.gif
251.05	1	2	2	2	0.074	2	1	2_2.gif
252.05	1	1	2	3	0.009	3	1	1_2.gif
253.05	1	3	2	2	0.009	2	1	3_2.gif
254.05	1	1	2	1	0.015	1	1	1_2.gif
255.05	1	4	2	3	0.05	3	1	4_2.gif
