onset	duration	nback_display	trial_type	response	response_time	correct_response	correct	stim_file
0	1	1	0	6	0	1	0	1_0.gif
1	1	2	0	1	0.325	2	0	2_0.gif
2	1	1	0	1	0.55	1	1	1_0.gif
3	1	4	0	4	0.722	4	1	4_0.gif
4	1	1	0	1	0.54	1	1	1_0.gif
5	1	2	0	2	0.44	2	1	2_0.gif
6.011	1	4	0	4	0.666	4	1	4_0.gif
7.011	1	1	0	1	0.48	1	1	1_0.gif
8.011	1	4	0	4	0.553	4	1	4_0.gif
9.011	1	2	0	2	0.454	2	1	2_0.gif
10.011	1	3	0	3	0.474	3	1	3_0.gif
11.011	1	4	0	4	0.677	4	1	4_0.gif
12.011	1	3	0	3	0.402	3	1	3_0.gif
13.011	1	4	0	4	0.579	4	1	4_0.gif
14.011	1	3	0	3	0.41	3	1	3_0.gif
15.011	1	1	0	1	0.811	1	1	1_0.gif
16.011	1	4	2	1	0.003	3	0	4_2.gif
17.011	1	1	2	6	0.003	1	0	1_2.gif
18.011	1	2	2	4	0.516	4	1	2_2.gif
19.011	1	3	2	1	0.336	1	1	3_2.gif
20.011	1	4	2	2	0.076	2	1	4_2.gif
21.011	1	2	2	4	0.461	3	0	2_2.gif
22.011	1	3	2	2	0.406	4	0	3_2.gif
23.011	1	2	2	3	0.165	2	0	2_2.gif
24.011	1	3	2	2	0.105	3	0	3_2.gif
25.011	1	4	2	3	0.003	2	0	4_2.gif
26.011	1	1	2	1	0.863	3	0	1_2.gif
27.011	1	2	2	1	0.003	4	0	2_2.gif
28.011	1	4	2	2	0.194	1	0	4_2.gif
29.011	1	2	2	4	0.039	2	0	2_2.gif
30.011	1	3	2	2	0.003	4	0	3_2.gif
31.011	1	4	2	4	0.693	2	0	4_2.gif
32.011	1	2	0	6	0.693	2	0	2_0.gif
33.012	1	3	0	6	0.693	3	0	3_0.gif
34.012	1	4	0	6	0.693	4	0	4_0.gif
35.012	1	1	0	1	0.426	1	1	1_0.gif
36.012	1	3	0	3	0.369	3	1	3_0.gif
37.012	1	1	0	1	0.435	1	1	1_0.gif
38.012	1	2	0	2	0.397	2	1	2_0.gif
39.012	1	4	0	4	0.565	4	1	4_0.gif
40.012	1	1	0	1	0.459	1	1	1_0.gif
41.012	1	3	0	3	0.399	3	1	3_0.gif
42.012	1	4	0	4	0.553	4	1	4_0.gif
43.012	1	3	0	3	0.448	3	1	3_0.gif
44.012	1	1	0	1	0.416	1	1	1_0.gif
45.012	1	2	0	2	0.346	2	1	2_0.gif
46.012	1	1	0	1	0.391	1	1	1_0.gif
47.012	1	3	0	3	0.331	3	1	3_0.gif
48.012	1	4	2	6	0.331	1	1	4_2.gif
49.012	1	3	2	6	0.331	3	1	3_2.gif
50.012	1	2	2	4	0.416	4	1	2_2.gif
51.012	1	1	2	3	0.221	3	1	1_2.gif
52.012	1	4	2	2	0.243	2	1	4_2.gif
53.012	1	1	2	1	0.185	1	1	1_2.gif
54.012	1	2	2	4	0.06	4	1	2_2.gif
55.012	1	3	2	1	0.058	1	1	3_2.gif
56.012	1	1	2	2	0.003	2	1	1_2.gif
57.012	1	2	2	3	0.003	3	1	2_2.gif
58.012	1	1	2	1	0.003	1	1	1_2.gif
59.012	1	4	2	2	0.003	2	1	4_2.gif
60.012	1	2	2	4	0.776	1	0	2_2.gif
61.012	1	3	2	3	0.96	4	0	3_2.gif
62.012	1	1	2	3	0.003	2	0	1_2.gif
63.012	1	4	2	6	0.003	3	0	4_2.gif
64.012	1	1	0	6	0.003	1	0	1_0.gif
65.012	1	4	0	1	0.11	4	0	4_0.gif
66.012	1	1	0	4	0.003	1	0	1_0.gif
67.012	1	3	0	3	0.847	3	1	3_0.gif
68.012	1	1	0	3	0.003	1	0	1_0.gif
69.012	1	2	0	2	0.82	2	1	2_0.gif
70.012	1	3	0	2	0.003	3	0	3_0.gif
71.012	1	4	0	4	0.795	4	1	4_0.gif
72.012	1	2	0	4	0.004	2	0	2_0.gif
73.012	1	4	0	4	0.696	4	1	4_0.gif
74.012	1	3	0	3	0.702	3	1	3_0.gif
75.012	1	1	0	1	0.53	1	1	1_0.gif
76.012	1	2	0	2	0.442	2	1	2_0.gif
77.012	1	4	0	4	0.53	4	1	4_0.gif
78.012	1	3	0	3	0.49	3	1	3_0.gif
79.012	1	4	0	4	0.477	4	1	4_0.gif
80.013	1	1	2	6	0.477	3	1	1_2.gif
81.013	1	3	2	6	0.477	4	1	3_2.gif
82.013	1	2	2	1	0.981	1	1	2_2.gif
83.013	1	3	2	1	0.003	3	0	3_2.gif
84.013	1	4	2	2	0.975	2	1	4_2.gif
85.013	1	2	2	2	0.003	3	0	2_2.gif
86.013	1	3	2	3	0.003	4	0	3_2.gif
87.013	1	1	2	4	0.035	2	0	1_2.gif
88.013	1	4	2	2	0.238	3	0	4_2.gif
89.013	1	2	2	1	0.23	1	1	2_2.gif
90.013	1	4	2	4	0.224	4	1	4_2.gif
91.013	1	1	2	2	0.206	2	1	1_2.gif
92.013	1	3	2	6	0.206	4	1	3_2.gif
93.013	1	4	2	1	0.219	1	1	4_2.gif
94.013	1	2	2	6	0.219	3	1	2_2.gif
95.013	1	4	2	4	0.496	4	1	4_2.gif
96.013	1	1	0	1	0.886	1	1	1_0.gif
97.013	1	4	0	1	0.003	4	0	4_0.gif
98.013	1	2	0	4	0.567	2	0	2_0.gif
99.013	1	4	0	2	0.179	4	0	4_0.gif
100.013	1	2	0	2	0.561	2	1	2_0.gif
101.013	1	3	0	3	0.63	3	1	3_0.gif
102.013	1	2	0	2	0.721	2	1	2_0.gif
103.013	1	1	0	1	0.506	1	1	1_0.gif
104.013	1	2	0	2	0.433	2	1	2_0.gif
105.013	1	1	0	1	0.502	1	1	1_0.gif
106.013	1	3	0	3	0.492	3	1	3_0.gif
107.013	1	4	0	4	0.528	4	1	4_0.gif
108.013	1	3	0	3	0.482	3	1	3_0.gif
109.013	1	4	0	4	0.52	4	1	4_0.gif
110.013	1	2	0	2	0.406	2	1	2_0.gif
111.013	1	4	0	4	0.429	4	1	4_0.gif
112.013	1	2	2	6	0.429	2	1	2_2.gif
113.013	1	3	2	6	0.429	4	1	3_2.gif
114.016	1	2	2	2	0.552	2	1	2_2.gif
115.016	1	4	2	3	0.41	3	1	4_2.gif
116.017	1	2	2	2	0.336	2	1	2_2.gif
117.017	1	4	2	4	0.27	4	1	4_2.gif
118.017	1	3	2	2	0.301	2	1	3_2.gif
119.017	1	4	2	4	0.227	4	1	4_2.gif
120.017	1	2	2	2	0.085	3	0	2_2.gif
121.017	1	1	2	3	0.003	4	0	1_2.gif
122.017	1	2	2	2	0.167	2	1	2_2.gif
123.017	1	3	2	1	0.773	1	1	3_2.gif
124.017	1	4	2	3	0.539	2	0	4_2.gif
125.017	1	1	2	6	0.539	3	0	1_2.gif
126.017	1	2	2	1	0.964	4	0	2_2.gif
127.017	1	1	2	1	0.003	1	1	1_2.gif
128.018	1	3	0	2	0.199	3	0	3_0.gif
129.018	1	2	0	3	0.003	2	0	2_0.gif
130.018	1	1	0	1	0.61	1	1	1_0.gif
131.018	1	3	0	3	0.477	3	1	3_0.gif
132.018	1	1	0	1	0.427	1	1	1_0.gif
133.018	1	2	0	2	0.41	2	1	2_0.gif
134.018	1	1	0	1	0.399	1	1	1_0.gif
135.018	1	4	0	4	0.606	4	1	4_0.gif
136.018	1	2	0	2	0.532	2	1	2_0.gif
137.018	1	3	0	3	0.399	3	1	3_0.gif
138.018	1	1	0	1	0.399	1	1	1_0.gif
139.018	1	2	0	2	0.324	2	1	2_0.gif
140.018	1	3	0	3	0.477	3	1	3_0.gif
141.018	1	2	0	2	0.529	2	1	2_0.gif
142.018	1	4	0	4	0.6	4	1	4_0.gif
143.018	1	3	0	3	0.511	3	1	3_0.gif
144.018	1	2	2	6	0.511	4	1	2_2.gif
145.018	1	4	2	6	0.511	3	1	4_2.gif
146.018	1	3	2	2	0.358	2	1	3_2.gif
147.018	1	4	2	4	0.261	4	1	4_2.gif
148.018	1	2	2	3	0.289	3	1	2_2.gif
149.018	1	4	2	2	0.237	4	0	4_2.gif
150.018	1	1	2	4	0.598	2	0	1_2.gif
151.018	1	2	2	3	0.421	4	0	2_2.gif
152.018	1	4	2	1	0.137	1	1	4_2.gif
153.018	1	1	2	2	0.003	2	1	1_2.gif
154.018	1	4	2	4	0.003	4	1	4_2.gif
155.018	1	2	2	1	0.09	1	1	2_2.gif
156.018	1	3	2	2	0.004	4	0	3_2.gif
157.018	1	4	2	4	0.003	2	0	4_2.gif
158.018	1	3	2	3	0.756	3	1	3_2.gif
159.018	1	1	2	6	0.756	4	1	1_2.gif
160.018	1	4	0	4	0.916	4	1	4_0.gif
161.018	1	3	0	4	0.003	3	0	3_0.gif
162.018	1	1	0	1	0.539	1	1	1_0.gif
163.018	1	2	0	2	0.387	2	1	2_0.gif
164.018	1	3	0	3	0.423	3	1	3_0.gif
165.018	1	4	0	4	0.575	4	1	4_0.gif
166.018	1	1	0	1	0.485	1	1	1_0.gif
167.018	1	2	0	2	0.46	2	1	2_0.gif
168.018	1	4	0	4	0.787	4	1	4_0.gif
169.018	1	2	0	4	0.003	2	0	2_0.gif
170.018	1	1	0	1	0.77	1	1	1_0.gif
171.018	1	2	0	1	0.003	2	0	2_0.gif
172.018	1	4	0	4	0.65	4	1	4_0.gif
173.018	1	1	0	1	0.559	1	1	1_0.gif
174.018	1	2	0	2	0.437	2	1	2_0.gif
175.018	1	3	0	3	0.413	3	1	3_0.gif
176.019	1	2	2	6	0.413	2	1	2_2.gif
177.019	1	4	2	6	0.413	3	1	4_2.gif
178.019	1	3	2	2	0.331	2	1	3_2.gif
179.019	1	4	2	4	0.281	4	1	4_2.gif
180.019	1	3	2	3	0.231	3	1	3_2.gif
181.019	1	4	2	4	0.253	4	1	4_2.gif
182.019	1	2	2	3	0.293	3	1	2_2.gif
183.019	1	4	2	2	0.64	4	0	4_2.gif
184.019	1	3	2	6	0.64	2	0	3_2.gif
185.019	1	4	2	6	0.64	4	0	4_2.gif
186.019	1	2	2	3	0.292	3	1	2_2.gif
187.019	1	1	2	4	0.246	4	1	1_2.gif
188.019	1	2	2	2	0.15	2	1	2_2.gif
189.019	1	4	2	1	0.003	1	1	4_2.gif
190.019	1	1	2	2	0.003	2	1	1_2.gif
191.019	1	2	2	6	0.003	4	1	2_2.gif
192.019	1	3	0	3	0.812	3	1	3_0.gif
193.019	1	4	0	3	0.003	4	0	4_0.gif
194.019	1	3	0	3	0.504	3	1	3_0.gif
195.019	1	2	0	2	0.522	2	1	2_0.gif
196.019	1	4	0	4	0.587	4	1	4_0.gif
197.019	1	2	0	2	0.443	2	1	2_0.gif
198.019	1	3	0	3	0.446	3	1	3_0.gif
199.019	1	4	0	4	0.476	4	1	4_0.gif
200.019	1	3	0	3	0.451	3	1	3_0.gif
201.019	1	4	0	4	0.402	4	1	4_0.gif
202.019	1	3	0	3	0.343	3	1	3_0.gif
203.019	1	1	0	1	0.484	1	1	1_0.gif
204.019	1	4	0	4	0.525	4	1	4_0.gif
205.019	1	1	0	1	0.483	1	1	1_0.gif
206.019	1	2	0	2	0.44	2	1	2_0.gif
207.019	1	3	0	3	0.383	3	1	3_0.gif
208.019	1	4	2	6	0.383	2	1	4_2.gif
209.019	1	2	2	6	0.383	3	1	2_2.gif
210.019	1	3	2	4	0.244	4	1	3_2.gif
211.019	1	2	2	2	0.142	2	1	2_2.gif
212.019	1	3	2	3	0.004	3	1	3_2.gif
213.019	1	4	2	2	0.003	2	1	4_2.gif
214.019	1	1	2	3	0.004	3	1	1_2.gif
215.019	1	2	2	4	0.003	4	1	2_2.gif
216.019	1	4	2	1	0.003	1	1	4_2.gif
217.019	1	2	2	2	0.003	2	1	2_2.gif
218.019	1	3	2	4	0.107	4	1	3_2.gif
219.019	1	4	2	3	0.55	2	0	4_2.gif
220.019	1	2	2	6	0.55	3	0	2_2.gif
221.019	1	3	2	6	0.55	4	0	3_2.gif
222.019	1	4	2	2	0.76	2	1	4_2.gif
223.019	1	1	2	3	0.46	3	1	1_2.gif
224.02	1	3	0	4	0.26	3	0	3_0.gif
225.02	1	1	0	3	0.259	1	0	1_0.gif
226.02	1	2	0	2	0.499	2	1	2_0.gif
227.02	1	4	0	4	0.546	4	1	4_0.gif
228.02	1	1	0	1	0.48	1	1	1_0.gif
229.02	1	3	0	3	0.422	3	1	3_0.gif
230.02	1	4	0	4	0.448	4	1	4_0.gif
231.02	1	3	0	3	0.477	3	1	3_0.gif
232.02	1	1	0	1	0.403	1	1	1_0.gif
233.02	1	2	0	2	0.471	2	1	2_0.gif
234.02	1	1	0	1	0.507	1	1	1_0.gif
235.02	1	3	0	3	0.414	3	1	3_0.gif
236.02	1	4	0	4	0.47	4	1	4_0.gif
237.02	1	3	0	3	0.427	3	1	3_0.gif
238.02	1	2	0	2	0.451	2	1	2_0.gif
239.02	1	1	0	1	0.421	1	1	1_0.gif
240.02	1	4	2	6	0.421	2	1	4_2.gif
241.02	1	1	2	6	0.421	1	1	1_2.gif
242.021	1	2	2	4	0.227	4	1	2_2.gif
243.021	1	3	2	1	0.005	1	1	3_2.gif
244.021	1	1	2	2	0.003	2	1	1_2.gif
245.021	1	2	2	1	0.513	3	0	2_2.gif
246.021	1	1	2	2	0.349	1	0	1_2.gif
247.021	1	4	2	1	0.256	2	0	4_2.gif
248.021	1	2	2	4	0.046	1	0	2_2.gif
249.021	1	3	2	6	0.046	4	0	3_2.gif
250.021	1	1	2	2	0.621	2	1	1_2.gif
251.021	1	4	2	3	0.346	3	1	4_2.gif
252.021	1	1	2	1	0.003	1	1	1_2.gif
253.021	1	4	2	4	0.003	4	1	4_2.gif
254.021	1	1	2	1	0.043	1	1	1_2.gif
255.021	1	3	2	4	0.002	4	1	3_2.gif
