onset	duration	nback_display	trial_type	response	response_time	correct_response	correct	stim_file
0	1	1	0	1	0.572	1	1	1_0.gif
1	1	4	0	4	0.898	4	1	4_0.gif
2	1	2	0	4	0.014	2	0	2_0.gif
3	1	1	0	2	0.015	1	0	1_0.gif
4	1	4	0	4	0.726	4	1	4_0.gif
5	1	1	0	4	0.014	1	0	1_0.gif
6	1	2	0	2	0.816	2	1	2_0.gif
7	1	1	0	2	0.015	1	0	1_0.gif
8	1	3	0	3	0.525	3	1	3_0.gif
9	1	4	0	4	0.652	4	1	4_0.gif
10	1	3	0	3	0.832	3	1	3_0.gif
11	1	4	0	3	0.014	4	0	4_0.gif
12	1	1	0	1	0.599	1	1	1_0.gif
13	1	3	0	3	0.94	3	1	3_0.gif
14	1	1	0	3	0.013	1	0	1_0.gif
15	1	4	0	4	0.675	4	1	4_0.gif
16	1	1	2	6	0	1	n/a	1_2.gif
17	1	4	2	6	0	4	n/a	4_2.gif
18	1	2	2	1	0.7	1	1	2_2.gif
19	1	1	2	1	0.015	4	0	1_2.gif
20	1	3	2	4	0.014	2	0	3_2.gif
21	1	1	2	2	0.017	1	0	1_2.gif
22	1	3	2	6	0	3	n/a	3_2.gif
23	1	2	2	3	0.081	1	0	2_2.gif
24	1	4	2	1	0.015	3	0	4_2.gif
25	1	1	2	3	0.015	2	0	1_2.gif
26	1	3	2	4	0.596	4	1	3_2.gif
27	1	1	2	1	0.496	1	1	1_2.gif
28	1	4	2	3	0.713	3	1	4_2.gif
29	1	1	2	3	0.015	1	0	1_2.gif
30	1	3	2	3	0.21	4	0	3_2.gif
31	1	1	2	4	0.576	1	0	1_2.gif
32.001	1	2	0	6	0	2	n/a	2_0.gif
33.001	1	4	0	2	0.19	4	0	4_0.gif
34.001	1	3	0	4	0.16	3	0	3_0.gif
35.001	1	1	0	3	0.186	1	0	1_0.gif
36.001	1	2	0	1	0.235	2	0	2_0.gif
37.001	1	3	0	2	0.133	3	0	3_0.gif
38.001	1	1	0	3	0.015	1	0	1_0.gif
39.001	1	4	0	1	0.014	4	0	4_0.gif
40.001	1	1	0	4	0.014	1	0	1_0.gif
41.001	1	3	0	3	0.989	3	1	3_0.gif
42.001	1	4	0	3	0.015	4	0	4_0.gif
43.001	1	2	0	4	0.022	2	0	2_0.gif
44.001	1	3	0	2	0.014	3	0	3_0.gif
45.001	1	1	0	3	0.014	1	0	1_0.gif
46.001	1	3	0	1	0.014	3	0	3_0.gif
47.001	1	4	0	3	0.013	4	0	4_0.gif
48.001	1	2	2	6	0	3	n/a	2_2.gif
49.001	1	1	2	6	0	4	n/a	1_2.gif
50.002	1	3	2	2	0.446	2	1	3_2.gif
51.002	1	1	2	1	0.315	1	1	1_2.gif
52.002	1	2	2	3	0.35	3	1	2_2.gif
53.002	1	3	2	1	0.014	1	1	3_2.gif
54.002	1	1	2	2	0.014	2	1	1_2.gif
55.002	1	3	2	1	0.013	3	0	3_2.gif
56.002	1	2	2	3	0.05	1	0	2_2.gif
57.002	1	4	2	6	0	3	n/a	4_2.gif
58.002	1	3	2	2	0.109	2	1	3_2.gif
59.002	1	1	2	3	0.014	4	0	1_2.gif
60.002	1	4	2	2	0.249	3	0	4_2.gif
61.002	1	1	2	1	0.014	1	1	1_2.gif
62.002	1	2	2	4	0.195	4	1	2_2.gif
63.002	1	1	2	1	0.014	1	1	1_2.gif
64.002	1	3	0	3	0.073	3	1	3_0.gif
65.002	1	4	0	4	0.697	4	1	4_0.gif
66.002	1	2	0	2	0.834	2	1	2_0.gif
67.002	1	4	0	2	0.013	4	0	4_0.gif
68.002	1	3	0	4	0.017	3	0	3_0.gif
69.002	1	4	0	3	0.015	4	0	4_0.gif
70.002	1	1	0	4	0.015	1	0	1_0.gif
71.002	1	2	0	2	0.676	2	1	2_0.gif
72.002	1	4	0	2	0.014	4	0	4_0.gif
73.002	1	3	0	4	0.015	3	0	3_0.gif
74.002	1	4	0	3	0.014	4	0	4_0.gif
75.002	1	2	0	4	0.015	2	0	2_0.gif
76.002	1	1	0	1	0.455	1	1	1_0.gif
77.002	1	4	0	4	0.634	4	1	4_0.gif
78.002	1	1	0	1	0.493	1	1	1_0.gif
79.002	1	4	0	4	0.56	4	1	4_0.gif
80.003	1	3	2	2	0.512	1	0	3_2.gif
81.003	1	2	2	6	0	4	n/a	2_2.gif
82.003	1	3	2	2	0.378	3	0	3_2.gif
83.003	1	1	2	3	0.867	2	0	1_2.gif
84.003	1	4	2	3	0.015	3	1	4_2.gif
85.003	1	2	2	1	0.014	1	1	2_2.gif
86.003	1	1	2	6	0	4	n/a	1_2.gif
87.003	1	2	2	2	0.935	2	1	2_2.gif
88.003	1	4	2	2	0.015	1	0	4_2.gif
89.003	1	3	2	4	0.449	2	0	3_2.gif
90.003	1	1	2	2	0.352	4	0	1_2.gif
91.003	1	2	2	1	0.671	3	0	2_2.gif
92.003	1	1	2	1	0.016	1	1	1_2.gif
93.003	1	4	2	2	0.527	2	1	4_2.gif
94.003	1	3	2	1	0.153	1	1	3_2.gif
95.003	1	4	2	4	0.014	4	1	4_2.gif
96.004	1	2	0	3	0.014	2	0	2_0.gif
97.004	1	3	0	2	0.014	3	0	3_0.gif
98.004	1	4	0	3	0.014	4	0	4_0.gif
99.004	1	2	0	2	0.523	2	1	2_0.gif
100.004	1	3	0	3	0.671	3	1	3_0.gif
101.004	1	1	0	1	0.512	1	1	1_0.gif
102.004	1	3	0	3	0.649	3	1	3_0.gif
103.004	1	1	0	1	0.473	1	1	1_0.gif
104.004	1	3	0	3	0.663	3	1	3_0.gif
105.004	1	1	0	1	0.51	1	1	1_0.gif
106.004	1	3	0	3	0.786	3	1	3_0.gif
107.004	1	1	0	3	0.014	1	0	1_0.gif
108.004	1	2	0	1	0.014	2	0	2_0.gif
109.004	1	4	0	2	0.014	4	0	4_0.gif
110.004	1	2	0	4	0.014	2	0	2_0.gif
111.004	1	3	0	6	0	3	n/a	3_0.gif
112.004	1	2	2	3	0.182	2	0	2_2.gif
113.004	1	1	2	6	0	3	n/a	1_2.gif
114.004	1	3	2	2	0.206	2	1	3_2.gif
115.004	1	4	2	1	0.238	1	1	4_2.gif
116.004	1	1	2	3	0.19	3	1	1_2.gif
117.004	1	4	2	4	0.015	4	1	4_2.gif
118.004	1	1	2	1	0.015	1	1	1_2.gif
119.004	1	3	2	4	0.015	4	1	3_2.gif
120.004	1	4	2	1	0.015	1	1	4_2.gif
121.004	1	2	2	2	0.015	3	0	2_2.gif
122.004	1	1	2	4	0.015	4	1	1_2.gif
123.004	1	3	2	2	0.014	2	1	3_2.gif
124.004	1	2	2	1	0.015	1	1	2_2.gif
125.004	1	1	2	4	0.014	3	0	1_2.gif
126.004	1	3	2	2	0.015	2	1	3_2.gif
127.004	1	4	2	1	0.015	1	1	4_2.gif
128.005	1	1	0	3	0.015	1	0	1_0.gif
129.005	1	2	0	4	0.015	2	0	2_0.gif
130.005	1	1	0	1	0.014	1	1	1_0.gif
131.005	1	4	0	4	0.584	4	1	4_0.gif
132.005	1	3	0	3	0.778	3	1	3_0.gif
133.005	1	1	0	3	0.014	1	0	1_0.gif
134.005	1	4	0	1	0.014	4	0	4_0.gif
135.005	1	2	0	4	0.014	2	0	2_0.gif
136.005	1	3	0	2	0.015	3	0	3_0.gif
137.005	1	4	0	4	0.665	4	1	4_0.gif
138.005	1	1	0	1	0.584	1	1	1_0.gif
139.005	1	3	0	3	0.894	3	1	3_0.gif
140.005	1	2	0	3	0.015	2	0	2_0.gif
141.005	1	3	0	2	0.014	3	0	3_0.gif
142.005	1	2	0	3	0.014	2	0	2_0.gif
143.005	1	1	0	1	0.574	1	1	1_0.gif
144.005	1	2	2	6	0	2	n/a	2_2.gif
145.005	1	3	2	6	0	1	n/a	3_2.gif
146.005	1	1	2	2	0.768	2	1	1_2.gif
147.005	1	4	2	2	0.015	3	0	4_2.gif
148.005	1	3	2	1	0.391	1	1	3_2.gif
149.005	1	4	2	4	0.195	4	1	4_2.gif
150.005	1	1	2	2	0.231	3	0	1_2.gif
151.005	1	4	2	4	0.109	4	1	4_2.gif
152.005	1	3	2	1	0.109	1	1	3_2.gif
153.005	1	1	2	4	0.015	4	1	1_2.gif
154.006	1	2	2	2	0.014	3	0	2_2.gif
155.006	1	3	2	1	0.014	1	1	3_2.gif
156.006	1	1	2	2	0.014	2	1	1_2.gif
157.006	1	4	2	6	0	3	n/a	4_2.gif
158.006	1	3	2	1	0.667	1	1	3_2.gif
159.006	1	2	2	1	0.016	4	0	2_2.gif
160.006	1	4	0	2	0.226	4	0	4_0.gif
161.006	1	2	0	4	0.382	2	0	2_0.gif
162.006	1	1	0	2	0.341	1	0	1_0.gif
163.006	1	4	0	1	0.014	4	0	4_0.gif
164.006	1	2	0	4	0.015	2	0	2_0.gif
165.006	1	3	0	2	0.014	3	0	3_0.gif
166.006	1	4	0	4	0.663	4	1	4_0.gif
167.006	1	3	0	4	0.015	3	0	3_0.gif
168.006	1	2	0	3	0.015	2	0	2_0.gif
169.006	1	4	0	4	0.635	4	1	4_0.gif
170.006	1	3	0	3	0.86	3	1	3_0.gif
171.006	1	1	0	3	0.015	1	0	1_0.gif
172.006	1	2	0	1	0.014	2	0	2_0.gif
173.006	1	1	0	2	0.013	1	0	1_0.gif
174.006	1	3	0	3	0.921	3	1	3_0.gif
175.006	1	1	0	3	0.015	1	0	1_0.gif
176.007	1	4	2	1	0.015	3	0	4_2.gif
177.007	1	3	2	6	0	1	n/a	3_2.gif
178.007	1	4	2	4	0.293	4	1	4_2.gif
179.007	1	3	2	2	0.268	3	0	3_2.gif
180.007	1	4	2	4	0.226	4	1	4_2.gif
181.007	1	2	2	3	0.015	3	1	2_2.gif
182.007	1	4	2	4	0.015	4	1	4_2.gif
183.007	1	3	2	2	0.014	2	1	3_2.gif
184.007	1	4	2	4	0.014	4	1	4_2.gif
185.007	1	1	2	3	0.095	3	1	1_2.gif
186.007	1	4	2	4	0.016	4	1	4_2.gif
187.007	1	2	2	1	0.013	1	1	2_2.gif
188.007	1	4	2	4	0.016	4	1	4_2.gif
189.007	1	3	2	2	0.015	2	1	3_2.gif
190.007	1	1	2	4	0.014	4	1	1_2.gif
191.007	1	4	2	3	0.015	3	1	4_2.gif
192.007	1	2	0	1	0.014	2	0	2_0.gif
193.007	1	1	0	2	0.022	1	0	1_0.gif
194.007	1	4	0	1	0.014	4	0	4_0.gif
195.007	1	1	0	4	0.017	1	0	1_0.gif
196.007	1	2	0	1	0.015	2	0	2_0.gif
197.007	1	1	0	2	0.014	1	0	1_0.gif
198.007	1	3	0	3	0.733	3	1	3_0.gif
199.007	1	4	0	3	0.014	4	0	4_0.gif
200.007	1	3	0	3	0.796	3	1	3_0.gif
201.007	1	4	0	3	0.014	4	0	4_0.gif
202.007	1	1	0	4	0.014	1	0	1_0.gif
203.007	1	3	0	1	0.015	3	0	3_0.gif
204.007	1	1	0	3	0.019	1	0	1_0.gif
205.007	1	4	0	1	0.015	4	0	4_0.gif
206.007	1	1	0	4	0.015	1	0	1_0.gif
207.007	1	4	0	1	0.015	4	0	4_0.gif
208.008	1	2	2	4	0.014	1	0	2_2.gif
209.008	1	1	2	6	0	4	n/a	1_2.gif
210.008	1	3	2	2	0.207	2	1	3_2.gif
211.008	1	1	2	1	0.038	1	1	1_2.gif
212.008	1	3	2	3	0.014	3	1	3_2.gif
213.008	1	2	2	1	0.014	1	1	2_2.gif
214.008	1	4	2	3	0.014	3	1	4_2.gif
215.008	1	1	2	1	0.053	2	0	1_2.gif
216.008	1	3	2	4	0.638	4	1	3_2.gif
217.008	1	1	2	1	0.24	1	1	1_2.gif
218.008	1	4	2	2	0.233	3	0	4_2.gif
219.008	1	1	2	6	0	1	n/a	1_2.gif
220.008	1	3	2	6	0	4	n/a	3_2.gif
221.008	1	1	2	1	0.638	1	1	1_2.gif
222.008	1	2	2	3	0.549	3	1	2_2.gif
223.008	1	4	2	1	0.058	1	1	4_2.gif
224.008	1	3	0	2	0.085	3	0	3_0.gif
225.008	1	1	0	6	0	1	n/a	1_0.gif
226.008	1	2	0	1	0.251	2	0	2_0.gif
227.008	1	3	0	3	0.452	3	1	3_0.gif
228.008	1	1	0	1	0.592	1	1	1_0.gif
229.008	1	4	0	4	0.607	4	1	4_0.gif
230.008	1	1	0	1	0.52	1	1	1_0.gif
231.008	1	3	0	3	0.699	3	1	3_0.gif
232.008	1	4	0	3	0.015	4	0	4_0.gif
233.008	1	2	0	2	0.644	2	1	2_0.gif
234.008	1	3	0	3	0.891	3	1	3_0.gif
235.008	1	1	0	3	0.015	1	0	1_0.gif
236.008	1	3	0	1	0.015	3	0	3_0.gif
237.008	1	4	0	3	0.014	4	0	4_0.gif
238.008	1	2	0	2	0.558	2	1	2_0.gif
239.008	1	1	0	1	0.548	1	1	1_0.gif
240.01	1	3	2	6	0	2	n/a	3_2.gif
241.01	1	1	2	6	0	1	n/a	1_2.gif
242.01	1	2	2	3	0.498	3	1	2_2.gif
243.01	1	3	2	1	0.248	1	1	3_2.gif
244.01	1	1	2	2	0.014	2	1	1_2.gif
245.01	1	3	2	3	0.218	3	1	3_2.gif
246.01	1	2	2	1	0.014	1	1	2_2.gif
247.01	1	4	2	1	0.227	3	0	4_2.gif
248.01	1	3	2	3	0.133	2	0	3_2.gif
249.01	1	1	2	6	0	4	n/a	1_2.gif
250.01	1	4	2	3	0.402	3	1	4_2.gif
251.01	1	1	2	1	0.014	1	1	1_2.gif
252.01	1	2	2	1	0.911	4	0	2_2.gif
253.01	1	1	2	1	0.014	1	1	1_2.gif
254.01	1	3	2	2	0.273	2	1	3_2.gif
255.01	1	4	2	1	0.014	1	1	4_2.gif
