onset	duration	nback_display	trial_type	response	response_time	correct_response	correct	stim_file
0	1	4	0	4	0.926	4	1	4_0.gif
1	1	3	0	4	0.002	3	0	3_0.gif
2	1	2	0	2	0.388	2	1	2_0.gif
3	1	1	0	1	0.474	1	1	1_0.gif
4	1	3	0	3	0.507	3	1	3_0.gif
5	1	4	0	4	0.57	4	1	4_0.gif
6	1	1	0	1	0.391	1	1	1_0.gif
7	1	3	0	3	0.378	3	1	3_0.gif
8	1	1	0	1	0.596	1	1	1_0.gif
9	1	2	0	2	0.367	2	1	2_0.gif
10	1	3	0	3	0.463	3	1	3_0.gif
11	1	2	0	2	0.391	2	1	2_0.gif
12	1	3	0	3	0.492	3	1	3_0.gif
13	1	2	0	2	0.368	2	1	2_0.gif
14	1	4	0	4	0.968	4	1	4_0.gif
15	1	3	0	4	0.003	3	0	3_0.gif
16	1	1	2	6	0	4	n/a	1_2.gif
17	1	4	2	2	0.188	3	0	4_2.gif
18	1	2	2	4	0.572	1	0	2_2.gif
19	1	3	2	1	0.316	4	0	3_2.gif
20	1	2	2	2	0.204	2	1	2_2.gif
21	1	3	2	3	0.164	3	1	3_2.gif
22	1	1	2	2	0.003	2	1	1_2.gif
23	1	2	2	3	0.003	3	1	2_2.gif
24	1	3	2	2	0.726	1	0	3_2.gif
25	1	2	2	3	0.64	2	0	2_2.gif
26	1	1	2	2	0.53	3	0	1_2.gif
27	1	2	2	6	0	2	n/a	2_2.gif
28	1	3	2	1	0.215	1	1	3_2.gif
29	1	1	2	2	0.054	2	1	1_2.gif
30	1	2	2	3	0.017	3	1	2_2.gif
31	1	4	2	1	0.197	1	1	4_2.gif
32	1	1	0	2	0.06	1	0	1_0.gif
33	1	4	0	1	0.003	4	0	4_0.gif
34	1	3	0	3	0.38	3	1	3_0.gif
35	1	4	0	4	0.601	4	1	4_0.gif
36	1	2	0	2	0.367	2	1	2_0.gif
37	1	3	0	3	0.394	3	1	3_0.gif
38	1	2	0	2	0.409	2	1	2_0.gif
39	1	4	0	4	0.62	4	1	4_0.gif
40	1	1	0	1	0.355	1	1	1_0.gif
41	1	2	0	2	0.366	2	1	2_0.gif
42	1	3	0	3	0.312	3	1	3_0.gif
43	1	2	0	2	0.307	2	1	2_0.gif
44	1	1	0	1	0.467	1	1	1_0.gif
45	1	4	0	4	0.458	4	1	4_0.gif
46	1	3	0	3	0.361	3	1	3_0.gif
47	1	4	0	4	0.603	4	1	4_0.gif
48.001	1	1	2	1	0.471	3	0	1_2.gif
49.001	1	2	2	6	0	4	n/a	2_2.gif
50.001	1	4	2	1	0.251	1	1	4_2.gif
51.001	1	1	2	2	0.21	2	1	1_2.gif
52.001	1	4	2	4	0.222	4	1	4_2.gif
53.001	1	3	2	1	0.202	1	1	3_2.gif
54.001	1	1	2	4	0.2	4	1	1_2.gif
55.001	1	2	2	3	0.179	3	1	2_2.gif
56.001	1	1	2	1	0.136	1	1	1_2.gif
57.001	1	3	2	2	0.084	2	1	3_2.gif
58.001	1	4	2	1	0.146	1	1	4_2.gif
59.001	1	3	2	3	0.032	3	1	3_2.gif
60.001	1	4	2	4	0.004	4	1	4_2.gif
61.001	1	2	2	3	0.049	3	1	2_2.gif
62.001	1	4	2	4	0.003	4	1	4_2.gif
63.001	1	2	2	2	0.003	2	1	2_2.gif
64.001	1	1	0	4	0.003	1	0	1_0.gif
65.001	1	2	0	1	0.003	2	0	2_0.gif
66.001	1	1	0	1	0.486	1	1	1_0.gif
67.001	1	2	0	2	0.443	2	1	2_0.gif
68.001	1	4	0	4	0.613	4	1	4_0.gif
69.001	1	3	0	3	0.395	3	1	3_0.gif
70.001	1	2	0	2	0.38	2	1	2_0.gif
71.001	1	4	0	4	0.525	4	1	4_0.gif
72.001	1	2	0	2	0.42	2	1	2_0.gif
73.001	1	4	0	4	0.81	4	1	4_0.gif
74.001	1	3	0	4	0.003	3	0	3_0.gif
75.001	1	4	0	4	0.643	4	1	4_0.gif
76.001	1	1	0	1	0.631	1	1	1_0.gif
77.001	1	2	0	2	0.436	2	1	2_0.gif
78.001	1	3	0	3	0.392	3	1	3_0.gif
79.001	1	2	0	2	0.4	2	1	2_0.gif
80.002	1	4	2	6	0	3	n/a	4_2.gif
81.002	1	1	2	2	0.956	2	1	1_2.gif
82.002	1	3	2	2	0.003	4	0	3_2.gif
83.002	1	4	2	3	0.431	1	0	4_2.gif
84.002	1	3	2	6	0	3	n/a	3_2.gif
85.002	1	2	2	4	0.186	4	1	2_2.gif
86.002	1	4	2	3	0.234	3	1	4_2.gif
87.002	1	3	2	2	0.127	2	1	3_2.gif
88.002	1	1	2	4	0.059	4	1	1_2.gif
89.002	1	4	2	3	0.035	3	1	4_2.gif
90.002	1	1	2	1	0.003	1	1	1_2.gif
91.002	1	3	2	4	0.003	4	1	3_2.gif
92.002	1	2	2	1	0.003	1	1	2_2.gif
93.002	1	1	2	6	0	3	n/a	1_2.gif
94.002	1	2	2	2	0.218	2	1	2_2.gif
95.002	1	4	2	1	0.201	1	1	4_2.gif
96.002	1	1	0	2	0.201	1	0	1_0.gif
97.002	1	3	0	3	0.475	3	1	3_0.gif
98.002	1	1	0	1	0.521	1	1	1_0.gif
99.002	1	3	0	3	0.426	3	1	3_0.gif
100.002	1	2	0	2	0.384	2	1	2_0.gif
101.002	1	3	0	3	0.43	3	1	3_0.gif
102.002	1	1	0	1	0.361	1	1	1_0.gif
103.002	1	3	0	3	0.443	3	1	3_0.gif
104.002	1	1	0	1	0.428	1	1	1_0.gif
105.002	1	2	0	2	0.434	2	1	2_0.gif
106.002	1	1	0	1	0.607	1	1	1_0.gif
107.002	1	3	0	3	0.504	3	1	3_0.gif
108.002	1	1	0	1	0.421	1	1	1_0.gif
109.002	1	3	0	3	0.368	3	1	3_0.gif
110.002	1	2	0	2	0.339	2	1	2_0.gif
111.002	1	3	0	3	0.409	3	1	3_0.gif
112.002	1	2	2	6	0	2	n/a	2_2.gif
113.002	1	4	2	3	0.278	3	1	4_2.gif
114.002	1	1	2	2	0.092	2	1	1_2.gif
115.002	1	2	2	4	0.265	4	1	2_2.gif
116.002	1	3	2	1	0.204	1	1	3_2.gif
117.002	1	1	2	2	0.214	2	1	1_2.gif
118.002	1	2	2	3	0.202	3	1	2_2.gif
119.002	1	3	2	1	0.194	1	1	3_2.gif
120.002	1	2	2	2	0.57	2	1	2_2.gif
121.002	1	3	2	3	0.249	3	1	3_2.gif
122.002	1	1	2	2	0.165	2	1	1_2.gif
123.002	1	4	2	3	0.139	3	1	4_2.gif
124.002	1	2	2	1	0.056	1	1	2_2.gif
125.002	1	1	2	4	0.129	4	1	1_2.gif
126.002	1	2	2	2	0.115	2	1	2_2.gif
127.002	1	1	2	1	0.02	1	1	1_2.gif
128.003	1	2	0	2	0.097	2	1	2_0.gif
129.003	1	1	0	2	0.003	1	0	1_0.gif
130.003	1	3	0	3	0.362	3	1	3_0.gif
131.003	1	2	0	2	0.378	2	1	2_0.gif
132.003	1	4	0	4	0.626	4	1	4_0.gif
133.003	1	3	0	4	0.003	3	0	3_0.gif
134.003	1	1	0	1	0.418	1	1	1_0.gif
135.003	1	4	0	4	0.506	4	1	4_0.gif
136.003	1	3	0	3	0.424	3	1	3_0.gif
137.003	1	1	0	1	0.428	1	1	1_0.gif
138.003	1	3	0	3	0.434	3	1	3_0.gif
139.003	1	2	0	2	0.364	2	1	2_0.gif
140.003	1	1	0	1	0.675	1	1	1_0.gif
141.003	1	3	0	3	0.382	3	1	3_0.gif
142.003	1	1	0	1	0.425	1	1	1_0.gif
143.003	1	2	0	2	0.395	2	1	2_0.gif
144.003	1	4	2	6	0	1	n/a	4_2.gif
145.003	1	1	2	2	0.535	2	1	1_2.gif
146.003	1	3	2	4	0.331	4	1	3_2.gif
147.003	1	4	2	1	0.257	1	1	4_2.gif
148.003	1	3	2	3	0.31	3	1	3_2.gif
149.003	1	1	2	4	0.278	4	1	1_2.gif
150.003	1	2	2	3	0.318	3	1	2_2.gif
151.003	1	3	2	1	0.27	1	1	3_2.gif
152.003	1	2	2	2	0.252	2	1	2_2.gif
153.003	1	1	2	3	0.28	3	1	1_2.gif
154.003	1	3	2	2	0.289	2	1	3_2.gif
155.003	1	4	2	1	0.274	1	1	4_2.gif
156.003	1	3	2	3	0.427	3	1	3_2.gif
157.003	1	4	2	4	0.404	4	1	4_2.gif
158.003	1	2	2	3	0.429	3	1	2_2.gif
159.003	1	1	2	6	0	4	n/a	1_2.gif
160.004	1	2	0	4	0.099	2	0	2_0.gif
161.004	1	3	0	3	0.554	3	1	3_0.gif
162.004	1	4	0	6	0	4	n/a	4_0.gif
163.004	1	1	0	4	0.036	1	0	1_0.gif
164.004	1	3	0	3	0.489	3	1	3_0.gif
165.004	1	1	0	1	0.554	1	1	1_0.gif
166.004	1	3	0	3	0.421	3	1	3_0.gif
167.004	1	1	0	1	0.468	1	1	1_0.gif
168.004	1	3	0	3	0.48	3	1	3_0.gif
169.004	1	4	0	4	0.59	4	1	4_0.gif
170.004	1	1	0	1	0.442	1	1	1_0.gif
171.004	1	2	0	2	0.458	2	1	2_0.gif
172.004	1	1	0	1	0.481	1	1	1_0.gif
173.004	1	3	0	3	0.374	3	1	3_0.gif
174.004	1	4	0	4	0.5	4	1	4_0.gif
175.004	1	3	0	3	0.478	3	1	3_0.gif
176.004	1	2	2	6	0	4	n/a	2_2.gif
177.004	1	4	2	6	0	3	n/a	4_2.gif
178.004	1	1	2	2	0.402	2	1	1_2.gif
179.004	1	3	2	4	0.333	4	1	3_2.gif
180.004	1	1	2	1	0.284	1	1	1_2.gif
181.004	1	3	2	3	0.345	3	1	3_2.gif
182.004	1	4	2	1	0.314	1	1	4_2.gif
183.004	1	2	2	3	0.247	3	1	2_2.gif
184.004	1	1	2	4	0.255	4	1	1_2.gif
185.004	1	4	2	2	0.208	2	1	4_2.gif
186.004	1	3	2	1	0.152	1	1	3_2.gif
187.004	1	2	2	4	0.173	4	1	2_2.gif
188.004	1	1	2	3	0.181	3	1	1_2.gif
189.004	1	3	2	2	0.148	2	1	3_2.gif
190.004	1	4	2	1	0.148	1	1	4_2.gif
191.004	1	1	2	3	0.183	3	1	1_2.gif
192.005	1	3	0	4	0.003	3	0	3_0.gif
193.005	1	1	0	3	0.003	1	0	1_0.gif
194.005	1	2	0	2	0.671	2	1	2_0.gif
195.005	1	3	0	3	0.432	3	1	3_0.gif
196.005	1	2	0	2	0.547	2	1	2_0.gif
197.005	1	3	0	3	0.387	3	1	3_0.gif
198.005	1	2	0	2	0.468	2	1	2_0.gif
199.005	1	4	0	4	0.506	4	1	4_0.gif
200.005	1	3	0	3	0.575	3	1	3_0.gif
201.005	1	1	0	1	0.553	1	1	1_0.gif
202.005	1	4	0	4	0.644	4	1	4_0.gif
203.005	1	2	0	2	0.582	2	1	2_0.gif
204.005	1	3	0	3	0.462	3	1	3_0.gif
205.005	1	2	0	2	0.447	2	1	2_0.gif
206.005	1	3	0	3	0.428	3	1	3_0.gif
207.005	1	1	0	1	0.35	1	1	1_0.gif
208.005	1	2	2	6	0	3	n/a	2_2.gif
209.005	1	3	2	3	0.04	1	0	3_2.gif
210.005	1	2	2	2	0.589	2	1	2_2.gif
211.005	1	1	2	3	0.433	3	1	1_2.gif
212.005	1	2	2	6	0	2	n/a	2_2.gif
213.005	1	3	2	1	0.007	1	1	3_2.gif
214.005	1	1	2	2	0.076	2	1	1_2.gif
215.005	1	2	2	3	0.11	3	1	2_2.gif
216.005	1	4	2	1	0.119	1	1	4_2.gif
217.005	1	1	2	2	0.005	2	1	1_2.gif
218.005	1	4	2	4	0.003	4	1	4_2.gif
219.005	1	3	2	1	0.003	1	1	3_2.gif
220.005	1	4	2	4	0.003	4	1	4_2.gif
221.005	1	2	2	3	0.004	3	1	2_2.gif
222.005	1	3	2	4	0.004	4	1	3_2.gif
223.005	1	2	2	2	0.003	2	1	2_2.gif
224.006	1	4	0	3	0.002	4	0	4_0.gif
225.006	1	1	0	4	0.003	1	0	1_0.gif
226.006	1	2	0	2	0.609	2	1	2_0.gif
227.006	1	3	0	3	0.429	3	1	3_0.gif
228.006	1	2	0	2	0.473	2	1	2_0.gif
229.006	1	1	0	1	0.432	1	1	1_0.gif
230.006	1	4	0	4	0.441	4	1	4_0.gif
231.006	1	3	0	3	0.475	3	1	3_0.gif
232.006	1	4	0	4	0.532	4	1	4_0.gif
233.006	1	1	0	1	0.451	1	1	1_0.gif
234.006	1	2	0	2	0.331	2	1	2_0.gif
235.006	1	4	0	4	0.698	4	1	4_0.gif
236.006	1	1	0	4	0.003	1	0	1_0.gif
237.006	1	4	0	4	0.656	4	1	4_0.gif
238.006	1	3	0	3	0.596	3	1	3_0.gif
239.006	1	1	0	1	0.75	1	1	1_0.gif
240.006	1	2	2	6	0	3	n/a	2_2.gif
241.006	1	1	2	3	0.134	1	0	1_2.gif
242.006	1	3	2	1	0.095	2	0	3_2.gif
243.006	1	4	2	2	0.065	1	0	4_2.gif
244.006	1	3	2	3	0.022	3	1	3_2.gif
245.006	1	4	2	2	0.301	4	0	4_2.gif
246.006	1	2	2	3	0.308	3	1	2_2.gif
247.006	1	4	2	4	0.608	4	1	4_2.gif
248.006	1	2	2	2	0.787	2	1	2_2.gif
249.006	1	1	2	4	0.779	4	1	1_2.gif
250.006	1	2	2	4	0.003	2	0	2_2.gif
251.006	1	1	2	2	0.259	1	0	1_2.gif
252.006	1	2	2	6	0	2	n/a	2_2.gif
253.006	1	4	2	4	0.075	1	0	4_2.gif
254.006	1	3	2	1	0.003	2	0	3_2.gif
255.006	1	2	2	6	0	4	n/a	2_2.gif
