onset	duration	nback_display	trial_type	response	response_time	correct_response	correct	stim_file
0	1	3	0	3	0.955	3	1	3_0.gif
1	1	1	0	3	0.005	1	0	1_0.gif
2	1	4	0	4	0.624	4	1	4_0.gif
3	1	3	0	3	0.536	3	1	3_0.gif
4	1	2	0	2	0.462	2	1	2_0.gif
5	1	3	0	3	0.541	3	1	3_0.gif
6	1	4	0	4	0.602	4	1	4_0.gif
7	1	3	0	3	0.644	3	1	3_0.gif
8	1	1	0	1	0.686	1	1	1_0.gif
9	1	4	0	6	0	4	n/a	4_0.gif
10	1	2	0	6	0	2	n/a	2_0.gif
11	1	3	0	1	0.169	3	0	3_0.gif
12	1	1	0	1	0.576	1	1	1_0.gif
13	1	3	0	3	0.767	3	1	3_0.gif
14	1	1	0	1	0.615	1	1	1_0.gif
15	1	2	0	6	0	2	n/a	2_0.gif
16	1	4	2	6	0	1	n/a	4_2.gif
17	1	3	2	6	0	2	n/a	3_2.gif
18	1	2	2	4	0.271	4	1	2_2.gif
19	1	4	2	3	0.258	3	1	4_2.gif
20	1	3	2	2	0.387	2	1	3_2.gif
21	1	1	2	4	0.354	4	1	1_2.gif
22	1	3	2	3	0.487	3	1	3_2.gif
23	1	1	2	1	0.536	1	1	1_2.gif
24	1	3	2	3	0.623	3	1	3_2.gif
25	1	2	2	1	0.679	1	1	2_2.gif
26	1	3	2	3	0.897	3	1	3_2.gif
27	1	1	2	3	0.007	2	0	1_2.gif
28	1	2	2	2	0.007	3	0	2_2.gif
29	1	1	2	6	0	1	n/a	1_2.gif
30	1	4	2	2	0.358	2	1	4_2.gif
31	1	1	2	1	0.326	1	1	1_2.gif
32	1	3	0	4	0.301	3	0	3_0.gif
33	1	4	0	4	0.572	4	1	4_0.gif
34	1	1	0	1	0.666	1	1	1_0.gif
35	1	3	0	3	0.63	3	1	3_0.gif
36	1	2	0	2	0.737	2	1	2_0.gif
37	1	3	0	2	0.007	3	0	3_0.gif
38	1	1	0	3	0.006	1	0	1_0.gif
39	1	2	0	1	0.006	2	0	2_0.gif
40	1	3	0	2	0.007	3	0	3_0.gif
41	1	4	0	3	0.007	4	0	4_0.gif
42	1	2	0	4	0.006	2	0	2_0.gif
43	1	1	0	2	0.009	1	0	1_0.gif
44	1	2	0	1	0.007	2	0	2_0.gif
45	1	4	0	2	0.006	4	0	4_0.gif
46	1	3	0	4	0.006	3	0	3_0.gif
47	1	1	0	3	0.007	1	0	1_0.gif
48	1	3	2	1	0.006	3	0	3_2.gif
49	1	4	2	6	0	1	n/a	4_2.gif
50	1	1	2	3	0.219	3	1	1_2.gif
51	1	4	2	4	0.25	4	1	4_2.gif
52	1	1	2	1	0.328	1	1	1_2.gif
53	1	2	2	4	0.226	4	1	2_2.gif
54	1	4	2	1	0.204	1	1	4_2.gif
55	1	2	2	6	0	2	n/a	2_2.gif
56	1	3	2	4	0.202	4	1	3_2.gif
57	1	1	2	2	0.127	2	1	1_2.gif
58	1	4	2	3	0.221	3	1	4_2.gif
59	1	3	2	1	0.229	1	1	3_2.gif
60	1	1	2	4	0.311	4	1	1_2.gif
61	1	2	2	3	0.186	3	1	2_2.gif
62	1	4	2	1	0.253	1	1	4_2.gif
63	1	2	2	2	0.378	2	1	2_2.gif
64	1	1	0	1	0.67	1	1	1_0.gif
65	1	2	0	2	0.679	2	1	2_0.gif
66	1	3	0	2	0.007	3	0	3_0.gif
67	1	4	0	3	0.006	4	0	4_0.gif
68	1	2	0	4	0.006	2	0	2_0.gif
69	1	1	0	1	0.613	1	1	1_0.gif
70	1	2	0	2	0.491	2	1	2_0.gif
71	1	4	0	4	0.5	4	1	4_0.gif
72	1	3	0	3	0.459	3	1	3_0.gif
73	1	2	0	6	0	2	n/a	2_0.gif
74.001	1	3	0	3	0.882	3	1	3_0.gif
75.001	1	2	0	3	0.006	2	0	2_0.gif
76.001	1	1	0	1	0.452	1	1	1_0.gif
77.001	1	2	0	2	0.428	2	1	2_0.gif
78.001	1	4	0	4	0.663	4	1	4_0.gif
79.001	1	1	0	4	0.006	1	0	1_0.gif
80.001	1	4	2	6	0	4	n/a	4_2.gif
81.001	1	1	2	6	0	1	n/a	1_2.gif
82.001	1	3	2	4	0.322	4	1	3_2.gif
83.001	1	4	2	1	0.211	1	1	4_2.gif
84.001	1	3	2	3	0.221	3	1	3_2.gif
85.001	1	4	2	4	0.26	4	1	4_2.gif
86.001	1	1	2	3	0.302	3	1	1_2.gif
87.001	1	2	2	4	0.33	4	1	2_2.gif
88.001	1	3	2	1	0.226	1	1	3_2.gif
89.001	1	4	2	2	0.298	2	1	4_2.gif
90.001	1	3	2	3	0.316	3	1	3_2.gif
91.001	1	2	2	4	0.404	4	1	2_2.gif
92.001	1	1	2	3	0.3	3	1	1_2.gif
93.001	1	3	2	2	0.457	2	1	3_2.gif
94.001	1	2	2	1	0.561	1	1	2_2.gif
95.001	1	3	2	3	0.615	3	1	3_2.gif
96.001	1	1	0	1	0.888	1	1	1_0.gif
97.001	1	3	0	1	0.007	3	0	3_0.gif
98.001	1	2	0	3	0.006	2	0	2_0.gif
99.001	1	4	0	2	0.006	4	0	4_0.gif
100.001	1	1	0	4	0.062	1	0	1_0.gif
101.001	1	3	0	1	0.179	3	0	3_0.gif
102.001	1	4	0	3	0.25	4	0	4_0.gif
103.001	1	2	0	4	0.263	2	0	2_0.gif
104.001	1	4	0	2	0.315	4	0	4_0.gif
105.001	1	1	0	1	0.551	1	1	1_0.gif
106.001	1	4	0	4	0.573	4	1	4_0.gif
107.001	1	3	0	3	0.627	3	1	3_0.gif
108.001	1	1	0	3	0.007	1	0	1_0.gif
109.001	1	2	0	2	0.616	2	1	2_0.gif
110.001	1	3	0	3	0.536	3	1	3_0.gif
111.001	1	2	0	2	0.525	2	1	2_0.gif
112.001	1	3	2	6	0	3	n/a	3_2.gif
113.001	1	1	2	6	0	2	n/a	1_2.gif
114.001	1	2	2	3	0.231	3	1	2_2.gif
115.001	1	4	2	1	0.232	1	1	4_2.gif
116.001	1	3	2	2	0.278	2	1	3_2.gif
117.001	1	1	2	4	0.339	4	1	1_2.gif
118.001	1	3	2	3	0.476	3	1	3_2.gif
119.001	1	2	2	1	0.448	1	1	2_2.gif
120.001	1	3	2	3	0.41	3	1	3_2.gif
121.001	1	4	2	2	0.3	2	1	4_2.gif
122.001	1	3	2	3	0.286	3	1	3_2.gif
123.001	1	2	2	4	0.217	4	1	2_2.gif
124.001	1	1	2	3	0.31	3	1	1_2.gif
125.001	1	3	2	2	0.236	2	1	3_2.gif
126.001	1	2	2	1	0.357	1	1	2_2.gif
127.001	1	4	2	3	0.326	3	1	4_2.gif
128.001	1	1	0	2	0.362	1	0	1_0.gif
129.001	1	2	0	2	0.806	2	1	2_0.gif
130.001	1	3	0	3	0.467	3	1	3_0.gif
131.001	1	1	0	1	0.394	1	1	1_0.gif
132.001	1	4	0	4	0.503	4	1	4_0.gif
133.001	1	1	0	1	0.424	1	1	1_0.gif
134.001	1	2	0	2	0.487	2	1	2_0.gif
135.001	1	1	0	1	0.518	1	1	1_0.gif
136.001	1	3	0	3	0.544	3	1	3_0.gif
137.001	1	4	0	4	0.54	4	1	4_0.gif
138.001	1	1	0	1	0.645	1	1	1_0.gif
139.001	1	2	0	2	0.498	2	1	2_0.gif
140.001	1	1	0	1	0.555	1	1	1_0.gif
141.001	1	2	0	2	0.572	2	1	2_0.gif
142.001	1	3	0	3	0.568	3	1	3_0.gif
143.001	1	2	0	2	0.518	2	1	2_0.gif
144.001	1	4	2	4	0.61	3	0	4_2.gif
145.001	1	1	2	6	0	2	n/a	1_2.gif
146.001	1	3	2	4	0.107	4	1	3_2.gif
147.001	1	4	2	1	0.295	1	1	4_2.gif
148.001	1	3	2	3	0.265	3	1	3_2.gif
149.001	1	4	2	4	0.257	4	1	4_2.gif
150.001	1	2	2	3	0.299	3	1	2_2.gif
151.001	1	3	2	4	0.381	4	1	3_2.gif
152.001	1	2	2	2	0.397	2	1	2_2.gif
153.001	1	1	2	3	0.451	3	1	1_2.gif
154.001	1	3	2	2	0.505	2	1	3_2.gif
155.001	1	2	2	1	0.478	1	1	2_2.gif
156.001	1	4	2	3	0.404	3	1	4_2.gif
157.002	1	3	2	2	0.387	2	1	3_2.gif
158.002	1	1	2	4	0.322	4	1	1_2.gif
159.002	1	4	2	3	0.492	3	1	4_2.gif
160.002	1	3	0	3	0.824	3	1	3_0.gif
161.002	1	4	0	3	0.007	4	0	4_0.gif
162.002	1	1	0	4	0.005	1	0	1_0.gif
163.002	1	2	0	1	0.179	2	0	2_0.gif
164.002	1	4	0	2	0.05	4	0	4_0.gif
165.002	1	3	0	4	0.007	3	0	3_0.gif
166.002	1	4	0	4	0.483	4	1	4_0.gif
167.002	1	1	0	1	0.419	1	1	1_0.gif
168.002	1	4	0	4	0.52	4	1	4_0.gif
169.002	1	3	0	3	0.411	3	1	3_0.gif
170.002	1	4	0	4	0.397	4	1	4_0.gif
171.002	1	2	0	2	0.378	2	1	2_0.gif
172.002	1	3	0	3	0.383	3	1	3_0.gif
173.002	1	2	0	2	0.446	2	1	2_0.gif
174.002	1	1	0	1	0.503	1	1	1_0.gif
175.002	1	2	0	2	0.476	2	1	2_0.gif
176.002	1	4	2	6	0	1	n/a	4_2.gif
177.002	1	2	2	6	0	2	n/a	2_2.gif
178.002	1	1	2	4	0.109	4	1	1_2.gif
179.002	1	2	2	2	0.061	2	1	2_2.gif
180.002	1	4	2	1	0.117	1	1	4_2.gif
181.002	1	2	2	2	0.089	2	1	2_2.gif
182.002	1	4	2	4	0.157	4	1	4_2.gif
183.002	1	2	2	2	0.108	2	1	2_2.gif
184.002	1	1	2	4	0.185	4	1	1_2.gif
185.002	1	3	2	2	0.175	2	1	3_2.gif
186.002	1	1	2	1	0.282	1	1	1_2.gif
187.002	1	4	2	3	0.224	3	1	4_2.gif
188.002	1	3	2	1	0.26	1	1	3_2.gif
189.002	1	2	2	4	0.179	4	1	2_2.gif
190.002	1	3	2	3	0.164	3	1	3_2.gif
191.002	1	4	2	2	0.183	2	1	4_2.gif
192.002	1	3	0	3	0.272	3	1	3_0.gif
193.002	1	1	0	1	0.491	1	1	1_0.gif
194.002	1	4	0	4	0.617	4	1	4_0.gif
195.002	1	2	0	2	0.519	2	1	2_0.gif
196.002	1	3	0	3	0.913	3	1	3_0.gif
197.002	1	1	0	3	0.007	1	0	1_0.gif
198.002	1	3	0	1	0.006	3	0	3_0.gif
199.002	1	1	0	1	0.435	1	1	1_0.gif
200.002	1	2	0	2	0.46	2	1	2_0.gif
201.002	1	4	0	4	0.423	4	1	4_0.gif
202.002	1	3	0	3	0.364	3	1	3_0.gif
203.002	1	2	0	2	0.35	2	1	2_0.gif
204.002	1	4	0	4	0.434	4	1	4_0.gif
205.002	1	3	0	4	0.007	3	0	3_0.gif
206.002	1	1	0	1	0.426	1	1	1_0.gif
207.002	1	3	0	3	0.431	3	1	3_0.gif
208.002	1	1	2	6	0	1	n/a	1_2.gif
209.002	1	3	2	6	0	3	n/a	3_2.gif
210.002	1	2	2	1	0.158	1	1	2_2.gif
211.002	1	3	2	3	0.078	3	1	3_2.gif
212.002	1	1	2	2	0.128	2	1	1_2.gif
213.002	1	2	2	3	0.092	3	1	2_2.gif
214.002	1	1	2	1	0.14	1	1	1_2.gif
215.002	1	4	2	2	0.151	2	1	4_2.gif
216.002	1	1	2	1	0.173	1	1	1_2.gif
217.002	1	3	2	4	0.189	4	1	3_2.gif
218.002	1	4	2	1	0.298	1	1	4_2.gif
219.002	1	1	2	3	0.25	3	1	1_2.gif
220.002	1	3	2	4	0.27	4	1	3_2.gif
221.002	1	2	2	1	0.24	1	1	2_2.gif
222.002	1	3	2	3	0.182	3	1	3_2.gif
223.002	1	1	2	2	0.179	2	1	1_2.gif
224.002	1	2	0	3	0.15	2	0	2_0.gif
225.002	1	3	0	3	0.54	3	1	3_0.gif
226.002	1	4	0	4	0.491	4	1	4_0.gif
227.002	1	2	0	2	0.395	2	1	2_0.gif
228.002	1	1	0	1	0.357	1	1	1_0.gif
229.002	1	2	0	2	0.366	2	1	2_0.gif
230.002	1	4	0	4	0.434	4	1	4_0.gif
231.002	1	3	0	3	0.28	3	1	3_0.gif
232.002	1	1	0	1	0.367	1	1	1_0.gif
233.002	1	3	0	3	0.394	3	1	3_0.gif
234.002	1	4	0	4	0.446	4	1	4_0.gif
235.002	1	1	0	1	0.369	1	1	1_0.gif
236.002	1	4	0	4	0.44	4	1	4_0.gif
237.002	1	1	0	1	0.788	1	1	1_0.gif
238.002	1	2	0	1	0.007	2	0	2_0.gif
239.002	1	4	0	4	0.542	4	1	4_0.gif
240.003	1	2	2	6	0	2	n/a	2_2.gif
241.003	1	3	2	6	0	4	n/a	3_2.gif
242.003	1	1	2	2	0.026	2	1	1_2.gif
243.003	1	4	2	3	0.065	3	1	4_2.gif
244.003	1	3	2	1	0.147	1	1	3_2.gif
245.003	1	1	2	4	0.064	4	1	1_2.gif
246.003	1	2	2	3	0.099	3	1	2_2.gif
247.003	1	4	2	1	0.171	1	1	4_2.gif
248.003	1	2	2	2	0.157	2	1	2_2.gif
249.003	1	1	2	4	0.162	4	1	1_2.gif
250.003	1	2	2	2	0.164	2	1	2_2.gif
251.003	1	3	2	1	0.065	1	1	3_2.gif
252.003	1	4	2	2	0.066	2	1	4_2.gif
253.003	1	2	2	3	0.173	3	1	2_2.gif
254.003	1	1	2	4	0.28	4	1	1_2.gif
255.003	1	2	2	2	0.592	2	1	2_2.gif
