onset	duration	nback_display	trial_type	response	response_time	correct_response	correct	stim_file
0	1	3	0	6	0	3	n/a	3_0.gif
1	1	4	0	3	0.176	4	0	4_0.gif
2	1	3	0	4	0.007	3	0	3_0.gif
3	1	4	0	4	0.508	4	1	4_0.gif
4	1	2	0	2	0.51	2	1	2_0.gif
5	1	4	0	4	0.549	4	1	4_0.gif
6	1	3	0	3	0.381	3	1	3_0.gif
7	1	1	0	1	0.396	1	1	1_0.gif
8	1	2	0	2	0.351	2	1	2_0.gif
9	1	3	0	3	0.382	3	1	3_0.gif
10	1	1	0	1	0.46	1	1	1_0.gif
11	1	3	0	3	0.409	3	1	3_0.gif
12	1	2	0	6	0	2	n/a	2_0.gif
13	1	1	0	1	0.517	1	1	1_0.gif
14	1	3	0	3	0.36	3	1	3_0.gif
15	1	2	0	2	0.485	2	1	2_0.gif
16	1	4	2	4	0.705	3	0	4_2.gif
17	1	1	2	6	0	2	n/a	1_2.gif
18	1	3	2	4	0.245	4	1	3_2.gif
19	1	1	2	1	0.066	1	1	1_2.gif
20.001	1	4	2	3	0.008	3	1	4_2.gif
21.001	1	2	2	1	0.011	1	1	2_2.gif
22.001	1	3	2	2	0.532	4	0	3_2.gif
23.001	1	1	2	3	0.342	2	0	1_2.gif
24.001	1	3	2	1	0.224	3	0	3_2.gif
25.001	1	2	2	3	0.257	1	0	2_2.gif
26.001	1	4	2	2	0.322	3	0	4_2.gif
27.001	1	2	2	6	0	2	n/a	2_2.gif
28.001	1	3	2	6	0	4	n/a	3_2.gif
29.001	1	1	2	2	0.17	2	1	1_2.gif
30.001	1	2	2	3	0.122	3	1	2_2.gif
31.001	1	1	2	1	0.194	1	1	1_2.gif
32.001	1	3	0	2	0.204	3	0	3_0.gif
33.001	1	4	0	6	0	4	n/a	4_0.gif
34.001	1	2	0	2	0.486	2	1	2_0.gif
35.001	1	3	0	3	0.246	3	1	3_0.gif
36.001	1	1	0	1	0.4	1	1	1_0.gif
37.001	1	2	0	2	0.283	2	1	2_0.gif
38.001	1	3	0	3	0.22	3	1	3_0.gif
39.001	1	2	0	2	0.375	2	1	2_0.gif
40.001	1	4	0	4	0.304	4	1	4_0.gif
41.001	1	1	0	1	0.408	1	1	1_0.gif
42.001	1	4	0	4	0.554	4	1	4_0.gif
43.001	1	1	0	1	0.442	1	1	1_0.gif
44.001	1	3	0	3	0.377	3	1	3_0.gif
45.001	1	2	0	2	0.308	2	1	2_0.gif
46.001	1	1	0	1	0.444	1	1	1_0.gif
47.001	1	3	0	3	0.369	3	1	3_0.gif
48.002	1	4	2	4	0.368	1	0	4_2.gif
49.002	1	1	2	6	0	3	n/a	1_2.gif
50.002	1	3	2	4	0.292	4	1	3_2.gif
51.002	1	4	2	1	0.227	1	1	4_2.gif
52.002	1	1	2	3	0.19	3	1	1_2.gif
53.002	1	2	2	1	0.299	4	0	2_2.gif
54.002	1	3	2	2	0.664	1	0	3_2.gif
55.002	1	4	2	3	0.486	2	0	4_2.gif
56.002	1	3	2	3	0.69	3	1	3_2.gif
57.002	1	2	2	3	0.007	4	0	2_2.gif
58.002	1	4	2	6	0	3	n/a	4_2.gif
59.002	1	2	2	6	0	2	n/a	2_2.gif
60.002	1	4	2	4	0.18	4	1	4_2.gif
61.002	1	1	2	2	0.071	2	1	1_2.gif
62.002	1	3	2	4	0.069	4	1	3_2.gif
63.002	1	1	2	1	0.101	1	1	1_2.gif
64.003	1	3	0	3	0.174	3	1	3_0.gif
65.003	1	4	0	4	0.473	4	1	4_0.gif
66.003	1	1	0	1	0.317	1	1	1_0.gif
67.003	1	2	0	2	0.341	2	1	2_0.gif
68.003	1	1	0	1	0.409	1	1	1_0.gif
69.003	1	3	0	3	0.427	3	1	3_0.gif
70.003	1	1	0	1	0.416	1	1	1_0.gif
71.003	1	2	0	2	0.422	2	1	2_0.gif
72.003	1	1	0	1	0.4	1	1	1_0.gif
73.003	1	2	0	2	0.333	2	1	2_0.gif
74.003	1	4	0	4	0.469	4	1	4_0.gif
75.003	1	3	0	3	0.456	3	1	3_0.gif
76.003	1	2	0	2	0.398	2	1	2_0.gif
77.003	1	3	0	3	0.517	3	1	3_0.gif
78.003	1	2	0	2	0.44	2	1	2_0.gif
79.003	1	1	0	1	0.346	1	1	1_0.gif
80.003	1	2	2	6	0	2	n/a	2_2.gif
81.003	1	1	2	6	0	1	n/a	1_2.gif
82.003	1	2	2	2	0.176	2	1	2_2.gif
83.003	1	3	2	1	0.177	1	1	3_2.gif
84.003	1	4	2	2	0.182	2	1	4_2.gif
85.003	1	3	2	3	0.104	3	1	3_2.gif
86.003	1	4	2	4	0.175	4	1	4_2.gif
87.003	1	3	2	3	0.203	3	1	3_2.gif
88.003	1	1	2	4	0.156	4	1	1_2.gif
89.003	1	2	2	3	0.127	3	1	2_2.gif
90.003	1	4	2	1	0.234	1	1	4_2.gif
91.003	1	3	2	2	0.187	2	1	3_2.gif
92.003	1	2	2	4	0.581	4	1	2_2.gif
93.003	1	1	2	2	0.458	3	0	1_2.gif
94.003	1	2	2	6	0	2	n/a	2_2.gif
95.003	1	1	2	6	0	1	n/a	1_2.gif
96.004	1	2	0	2	0.204	2	1	2_0.gif
97.004	1	3	0	3	0.435	3	1	3_0.gif
98.004	1	2	0	2	0.486	2	1	2_0.gif
99.004	1	4	0	4	0.436	4	1	4_0.gif
100.004	1	2	0	2	0.401	2	1	2_0.gif
101.004	1	4	0	4	0.543	4	1	4_0.gif
102.004	1	3	0	3	0.407	3	1	3_0.gif
103.004	1	1	0	1	0.438	1	1	1_0.gif
104.004	1	3	0	3	0.496	3	1	3_0.gif
105.004	1	1	0	1	0.492	1	1	1_0.gif
106.004	1	3	0	3	0.44	3	1	3_0.gif
107.004	1	1	0	1	0.412	1	1	1_0.gif
108.004	1	3	0	3	0.444	3	1	3_0.gif
109.004	1	2	0	2	0.411	2	1	2_0.gif
110.004	1	1	0	1	0.405	1	1	1_0.gif
111.004	1	3	0	3	0.395	3	1	3_0.gif
112.004	1	2	2	2	0.492	1	0	2_2.gif
113.004	1	1	2	6	0	3	n/a	1_2.gif
114.004	1	3	2	2	0.394	2	1	3_2.gif
115.004	1	4	2	1	0.238	1	1	4_2.gif
116.004	1	2	2	3	0.239	3	1	2_2.gif
117.004	1	4	2	4	0.222	4	1	4_2.gif
118.004	1	3	2	2	0.437	2	1	3_2.gif
119.004	1	1	2	4	0.409	4	1	1_2.gif
120.004	1	3	2	3	0.282	3	1	3_2.gif
121.004	1	1	2	1	0.239	1	1	1_2.gif
122.004	1	4	2	3	0.022	3	1	4_2.gif
123.004	1	3	2	1	0.184	1	1	3_2.gif
124.004	1	2	2	4	0.111	4	1	2_2.gif
125.005	1	3	2	3	0.119	3	1	3_2.gif
126.005	1	1	2	2	0.045	2	1	1_2.gif
127.005	1	2	2	3	0.068	3	1	2_2.gif
128.005	1	1	0	1	0.22	1	1	1_0.gif
129.005	1	2	0	2	0.389	2	1	2_0.gif
130.005	1	3	0	3	0.418	3	1	3_0.gif
131.005	1	1	0	1	0.445	1	1	1_0.gif
132.005	1	4	0	4	0.493	4	1	4_0.gif
133.005	1	1	0	1	0.473	1	1	1_0.gif
134.005	1	2	0	2	0.537	2	1	2_0.gif
135.005	1	1	0	1	0.496	1	1	1_0.gif
136.005	1	3	0	3	0.443	3	1	3_0.gif
137.005	1	1	0	1	0.429	1	1	1_0.gif
138.005	1	4	0	4	0.501	4	1	4_0.gif
139.005	1	3	0	3	0.482	3	1	3_0.gif
140.006	1	2	0	2	0.344	2	1	2_0.gif
141.006	1	1	0	1	0.433	1	1	1_0.gif
142.006	1	3	0	3	0.414	3	1	3_0.gif
143.006	1	2	0	2	0.381	2	1	2_0.gif
144.006	1	1	2	6	0	3	n/a	1_2.gif
145.006	1	2	2	6	0	2	n/a	2_2.gif
146.006	1	3	2	1	0.208	1	1	3_2.gif
147.006	1	2	2	2	0.237	2	1	2_2.gif
148.006	1	4	2	3	0.071	3	1	4_2.gif
149.006	1	1	2	2	0.154	2	1	1_2.gif
150.006	1	3	2	4	0.161	4	1	3_2.gif
151.006	1	4	2	1	0.203	1	1	4_2.gif
152.006	1	1	2	3	0.176	3	1	1_2.gif
153.006	1	3	2	4	0.229	4	1	3_2.gif
154.006	1	4	2	1	0.273	1	1	4_2.gif
155.006	1	3	2	3	0.266	3	1	3_2.gif
156.006	1	4	2	4	0.334	4	1	4_2.gif
157.006	1	2	2	3	0.277	3	1	2_2.gif
158.006	1	3	2	2	0.267	4	0	3_2.gif
159.006	1	2	2	3	0.506	2	0	2_2.gif
160.006	1	1	0	1	0.659	1	1	1_0.gif
161.006	1	2	0	2	0.716	2	1	2_0.gif
162.006	1	4	0	4	0.574	4	1	4_0.gif
163.006	1	3	0	3	0.47	3	1	3_0.gif
164.006	1	4	0	4	0.587	4	1	4_0.gif
165.006	1	3	0	3	0.452	3	1	3_0.gif
166.006	1	1	0	1	0.48	1	1	1_0.gif
167.008	1	2	0	2	0.43	2	1	2_0.gif
168.008	1	4	0	4	0.637	4	1	4_0.gif
169.008	1	2	0	2	0.511	2	1	2_0.gif
170.008	1	3	0	3	0.461	3	1	3_0.gif
171.008	1	4	0	4	0.5	4	1	4_0.gif
172.008	1	1	0	1	0.422	1	1	1_0.gif
173.008	1	2	0	2	0.34	2	1	2_0.gif
174.008	1	1	0	1	0.431	1	1	1_0.gif
175.008	1	3	0	3	0.485	3	1	3_0.gif
176.008	1	4	2	6	0	1	n/a	4_2.gif
177.008	1	3	2	6	0	3	n/a	3_2.gif
178.008	1	4	2	4	0.161	4	1	4_2.gif
179.008	1	1	2	3	0.091	3	1	1_2.gif
180.008	1	2	2	4	0.191	4	1	2_2.gif
181.008	1	4	2	1	0.135	1	1	4_2.gif
182.008	1	2	2	2	0.115	2	1	2_2.gif
183.008	1	1	2	4	0.124	4	1	1_2.gif
184.008	1	2	2	2	0.128	2	1	2_2.gif
185.008	1	3	2	1	0.228	1	1	3_2.gif
186.008	1	2	2	2	0.256	2	1	2_2.gif
187.008	1	4	2	3	0.203	3	1	4_2.gif
188.008	1	2	2	2	0.236	2	1	2_2.gif
189.008	1	1	2	4	0.181	4	1	1_2.gif
190.008	1	4	2	2	0.186	2	1	4_2.gif
191.008	1	3	2	1	0.201	1	1	3_2.gif
192.008	1	2	0	4	0.129	2	0	2_0.gif
193.008	1	4	0	6	0	4	n/a	4_0.gif
194.008	1	3	0	3	0.441	3	1	3_0.gif
195.008	1	4	0	4	0.454	4	1	4_0.gif
196.008	1	3	0	3	0.473	3	1	3_0.gif
197.008	1	1	0	1	0.345	1	1	1_0.gif
198.008	1	2	0	2	0.34	2	1	2_0.gif
199.008	1	3	0	3	0.369	3	1	3_0.gif
200.008	1	1	0	1	0.441	1	1	1_0.gif
201.008	1	3	0	3	0.466	3	1	3_0.gif
202.008	1	2	0	6	0	2	n/a	2_0.gif
203.009	1	1	0	1	0.528	1	1	1_0.gif
204.009	1	3	0	3	0.472	3	1	3_0.gif
205.009	1	2	0	2	0.426	2	1	2_0.gif
206.009	1	4	0	4	0.398	4	1	4_0.gif
207.009	1	1	0	1	0.371	1	1	1_0.gif
208.009	1	3	2	6	0	4	n/a	3_2.gif
209.009	1	1	2	3	0.966	1	0	1_2.gif
210.009	1	4	2	3	0.007	3	1	4_2.gif
211.009	1	2	2	1	0.007	1	1	2_2.gif
212.009	1	3	2	4	0.007	4	1	3_2.gif
213.009	1	1	2	2	0.007	2	1	1_2.gif
214.009	1	3	2	3	0.007	3	1	3_2.gif
215.009	1	2	2	1	0.007	1	1	2_2.gif
216.009	1	4	2	3	0.007	3	1	4_2.gif
217.009	1	2	2	2	0.007	2	1	2_2.gif
218.01	1	3	2	4	0.007	4	1	3_2.gif
219.01	1	1	2	2	0.01	2	1	1_2.gif
220.01	1	2	2	3	0.007	3	1	2_2.gif
221.01	1	1	2	1	0.007	1	1	1_2.gif
222.01	1	3	2	2	0.008	2	1	3_2.gif
223.01	1	4	2	1	0.007	1	1	4_2.gif
224.01	1	2	0	3	0.008	2	0	2_0.gif
225.01	1	3	0	6	0	3	n/a	3_0.gif
226.01	1	1	0	1	0.21	1	1	1_0.gif
227.01	1	2	0	2	0.264	2	1	2_0.gif
228.01	1	3	0	3	0.332	3	1	3_0.gif
229.01	1	2	0	2	0.352	2	1	2_0.gif
230.01	1	4	0	4	0.45	4	1	4_0.gif
231.01	1	1	0	1	0.381	1	1	1_0.gif
232.01	1	4	0	4	0.484	4	1	4_0.gif
233.01	1	1	0	1	0.496	1	1	1_0.gif
234.01	1	3	0	3	0.461	3	1	3_0.gif
235.01	1	2	0	2	0.351	2	1	2_0.gif
236.01	1	1	0	1	0.419	1	1	1_0.gif
237.01	1	3	0	3	0.418	3	1	3_0.gif
238.01	1	4	0	4	0.485	4	1	4_0.gif
239.011	1	1	0	1	0.432	1	1	1_0.gif
240.011	1	3	2	6	0	4	n/a	3_2.gif
241.011	1	4	2	6	0	1	n/a	4_2.gif
242.011	1	1	2	3	0.166	3	1	1_2.gif
243.011	1	2	2	4	0.161	4	1	2_2.gif
244.011	1	3	2	1	0.167	1	1	3_2.gif
245.011	1	4	2	2	0.149	2	1	4_2.gif
246.011	1	3	2	3	0.188	3	1	3_2.gif
247.011	1	2	2	4	0.204	4	1	2_2.gif
248.011	1	4	2	3	0.025	3	1	4_2.gif
249.011	1	2	2	2	0.012	2	1	2_2.gif
250.011	1	4	2	4	0.019	4	1	4_2.gif
251.011	1	1	2	2	0.028	2	1	1_2.gif
252.011	1	3	2	4	0.008	4	1	3_2.gif
253.011	1	1	2	1	0.008	1	1	1_2.gif
254.011	1	3	2	3	0.008	3	1	3_2.gif
255.011	1	4	2	1	0.008	1	1	4_2.gif
