onset	duration	nback_display	trial_type	response	response_time	correct_response	correct	stim_file
0.001	1	3	0	3	0.783	3	1	3_0.gif
1.001	1	2	0	3	0.013	2	0	2_0.gif
2.001	1	1	0	1	0.346	1	1	1_0.gif
3.001	1	3	0	3	0.337	3	1	3_0.gif
4.001	1	2	0	2	0.38	2	1	2_0.gif
5.001	1	1	0	1	0.325	1	1	1_0.gif
6.001	1	3	0	3	0.322	3	1	3_0.gif
7.001	1	1	0	1	0.411	1	1	1_0.gif
8.001	1	2	0	2	0.44	2	1	2_0.gif
9.001	1	1	0	1	0.375	1	1	1_0.gif
10.001	1	4	0	4	0.415	4	1	4_0.gif
11.001	1	2	0	2	0.423	2	1	2_0.gif
12.001	1	4	0	4	0.491	4	1	4_0.gif
13.001	1	1	0	1	0.474	1	1	1_0.gif
14.001	1	2	0	2	0.366	2	1	2_0.gif
15.001	1	4	0	4	0.412	4	1	4_0.gif
16.001	1	2	2	2	0.406	2	1	2_2.gif
17.001	1	1	2	6	0	4	n/a	1_2.gif
18.001	1	2	2	2	0.341	2	1	2_2.gif
19.001	1	4	2	1	0.24	1	1	4_2.gif
20.001	1	1	2	2	0.26	2	1	1_2.gif
21.001	1	3	2	4	0.203	4	1	3_2.gif
22.001	1	2	2	1	0.126	1	1	2_2.gif
23.001	1	3	2	3	0.066	3	1	3_2.gif
24.001	1	4	2	2	0.047	2	1	4_2.gif
25.001	1	1	2	3	0.05	3	1	1_2.gif
26.001	1	4	2	4	0.077	4	1	4_2.gif
27.001	1	2	2	1	0.06	1	1	2_2.gif
28.001	1	1	2	4	0.078	4	1	1_2.gif
29.001	1	2	2	2	0.051	2	1	2_2.gif
30.001	1	1	2	1	0.052	1	1	1_2.gif
31.001	1	3	2	2	0.118	2	1	3_2.gif
32.002	1	1	0	1	0.153	1	1	1_0.gif
33.002	1	2	0	2	0.507	2	1	2_0.gif
34.003	1	4	0	4	0.384	4	1	4_0.gif
35.003	1	1	0	1	0.36	1	1	1_0.gif
36.003	1	2	0	2	0.301	2	1	2_0.gif
37.003	1	3	0	3	0.514	3	1	3_0.gif
38.003	1	1	0	1	0.366	1	1	1_0.gif
39.003	1	3	0	3	0.38	3	1	3_0.gif
40.003	1	2	0	2	0.373	2	1	2_0.gif
41.003	1	1	0	1	0.381	1	1	1_0.gif
42.003	1	4	0	4	0.361	4	1	4_0.gif
43.003	1	3	0	1	0.413	3	0	3_0.gif
44.004	1	2	0	2	0.378	2	1	2_0.gif
45.006	1	3	0	3	0.614	3	1	3_0.gif
46.006	1	4	0	4	0.715	4	1	4_0.gif
47.006	1	2	0	2	0.462	2	1	2_0.gif
48.006	1	1	2	1	0.761	4	0	1_2.gif
49.006	1	4	2	6	0	2	n/a	4_2.gif
50.006	1	2	2	1	0.425	1	1	2_2.gif
51.006	1	3	2	4	0.275	4	1	3_2.gif
52.006	1	4	2	2	0.222	2	1	4_2.gif
53.006	1	2	2	6	0	3	n/a	2_2.gif
54.006	1	3	2	4	0.147	4	1	3_2.gif
55.006	1	4	2	2	0.076	2	1	4_2.gif
56.006	1	1	2	3	0.015	3	1	1_2.gif
57.006	1	2	2	4	0.015	4	1	2_2.gif
58.006	1	3	2	1	0.016	1	1	3_2.gif
59.006	1	2	2	2	0.015	2	1	2_2.gif
60.006	1	1	2	3	0.015	3	1	1_2.gif
61.006	1	3	2	2	0.018	2	1	3_2.gif
62.006	1	1	2	1	0.016	1	1	1_2.gif
63.006	1	3	2	3	0.044	3	1	3_2.gif
64.007	1	2	0	1	0.014	2	0	2_0.gif
65.007	1	3	0	2	0.015	3	0	3_0.gif
66.007	1	2	0	2	0.374	2	1	2_0.gif
67.007	1	3	0	3	0.34	3	1	3_0.gif
68.007	1	2	0	2	0.299	2	1	2_0.gif
69.007	1	3	0	3	0.34	3	1	3_0.gif
70.007	1	1	0	1	0.45	1	1	1_0.gif
71.007	1	4	0	4	0.326	4	1	4_0.gif
72.007	1	2	0	2	0.449	2	1	2_0.gif
73.007	1	3	0	3	0.409	3	1	3_0.gif
74.008	1	1	0	1	0.398	1	1	1_0.gif
75.008	1	3	0	3	0.343	3	1	3_0.gif
76.008	1	1	0	1	0.417	1	1	1_0.gif
77.008	1	2	0	2	0.346	2	1	2_0.gif
78.008	1	4	0	4	0.332	4	1	4_0.gif
79.008	1	1	0	1	0.421	1	1	1_0.gif
80.011	1	4	2	6	0	4	n/a	4_2.gif
81.034	1	1	2	4	0.344	1	0	1_2.gif
82.037	1	3	2	4	0.398	4	1	3_2.gif
83.037	1	2	2	1	0.21	1	1	2_2.gif
84.037	1	1	2	3	0.204	3	1	1_2.gif
85.037	1	4	2	2	0.274	2	1	4_2.gif
86.037	1	1	2	1	0.267	1	1	1_2.gif
87.037	1	2	2	4	0.171	4	1	2_2.gif
88.037	1	1	2	1	0.07	1	1	1_2.gif
89.037	1	4	2	2	0.089	2	1	4_2.gif
90.038	1	2	2	1	0.059	1	1	2_2.gif
91.038	1	4	2	4	0.083	4	1	4_2.gif
92.041	1	1	2	2	0.049	2	1	1_2.gif
93.041	1	2	2	4	0.015	4	1	2_2.gif
94.041	1	3	2	1	0.067	1	1	3_2.gif
95.041	1	4	2	2	0.069	2	1	4_2.gif
96.042	1	3	0	3	0.175	3	1	3_0.gif
97.042	1	1	0	1	0.767	1	1	1_0.gif
98.042	1	4	0	4	0.433	4	1	4_0.gif
99.042	1	1	0	1	0.378	1	1	1_0.gif
100.042	1	3	0	3	0.357	3	1	3_0.gif
101.042	1	2	0	2	0.34	2	1	2_0.gif
102.042	1	1	0	1	0.265	1	1	1_0.gif
103.042	1	4	0	4	0.343	4	1	4_0.gif
104.042	1	2	0	2	0.309	2	1	2_0.gif
105.042	1	4	0	4	0.344	4	1	4_0.gif
106.042	1	1	0	1	0.543	1	1	1_0.gif
107.042	1	4	0	4	0.384	4	1	4_0.gif
108.042	1	1	0	1	0.449	1	1	1_0.gif
109.042	1	2	0	2	0.452	2	1	2_0.gif
110.042	1	3	0	3	0.426	3	1	3_0.gif
111.042	1	1	0	1	0.402	1	1	1_0.gif
112.042	1	2	2	6	0	3	n/a	2_2.gif
113.043	1	4	2	6	0	1	n/a	4_2.gif
114.043	1	2	2	2	0.172	2	1	2_2.gif
115.043	1	4	2	4	0.219	4	1	4_2.gif
116.043	1	2	2	2	0.163	2	1	2_2.gif
117.043	1	3	2	4	0.168	4	1	3_2.gif
118.043	1	1	2	2	0.158	2	1	1_2.gif
119.043	1	4	2	3	0.105	3	1	4_2.gif
120.043	1	2	2	1	0.054	1	1	2_2.gif
121.043	1	4	2	4	0.018	4	1	4_2.gif
122.043	1	2	2	2	0.014	2	1	2_2.gif
123.043	1	1	2	4	0.014	4	1	1_2.gif
124.043	1	2	2	2	0.014	2	1	2_2.gif
125.043	1	1	2	1	0.013	1	1	1_2.gif
126.043	1	2	2	2	0.014	2	1	2_2.gif
127.043	1	4	2	1	0.013	1	1	4_2.gif
128.044	1	1	0	2	0.014	1	0	1_0.gif
129.044	1	3	0	1	0.014	3	0	3_0.gif
130.044	1	4	0	4	0.405	4	1	4_0.gif
131.044	1	3	0	3	0.356	3	1	3_0.gif
132.044	1	1	0	1	0.371	1	1	1_0.gif
133.044	1	4	0	4	0.427	4	1	4_0.gif
134.044	1	2	0	2	0.284	2	1	2_0.gif
135.044	1	1	0	1	0.29	1	1	1_0.gif
136.044	1	4	0	4	0.441	4	1	4_0.gif
137.044	1	1	0	1	0.294	1	1	1_0.gif
138.044	1	4	0	4	0.287	4	1	4_0.gif
139.044	1	1	0	1	0.389	1	1	1_0.gif
140.044	1	2	0	2	0.403	2	1	2_0.gif
141.044	1	4	0	4	0.589	4	1	4_0.gif
142.044	1	1	0	1	0.34	1	1	1_0.gif
143.044	1	4	0	4	0.368	4	1	4_0.gif
144.045	1	1	2	1	0.331	1	1	1_2.gif
145.045	1	4	2	6	0	4	n/a	4_2.gif
146.045	1	2	2	1	0.202	1	1	2_2.gif
147.045	1	4	2	4	0.078	4	1	4_2.gif
148.045	1	2	2	2	0.076	2	1	2_2.gif
149.045	1	1	2	4	0.015	4	1	1_2.gif
150.045	1	4	2	2	0.05	2	1	4_2.gif
151.045	1	2	2	1	0.014	1	1	2_2.gif
152.045	1	1	2	4	0.044	4	1	1_2.gif
153.045	1	4	2	2	0.037	2	1	4_2.gif
154.045	1	1	2	1	0.046	1	1	1_2.gif
155.045	1	2	2	4	0.016	4	1	2_2.gif
156.045	1	1	2	1	0.013	1	1	1_2.gif
157.045	1	2	2	2	0.014	2	1	2_2.gif
158.045	1	4	2	1	0.017	1	1	4_2.gif
159.045	1	2	2	2	0.013	2	1	2_2.gif
160.045	1	3	0	4	0.014	3	0	3_0.gif
161.045	1	2	0	3	0.014	2	0	2_0.gif
162.045	1	3	0	3	0.363	3	1	3_0.gif
163.045	1	1	0	1	0.3	1	1	1_0.gif
164.045	1	2	0	2	0.403	2	1	2_0.gif
165.045	1	1	0	1	0.365	1	1	1_0.gif
166.045	1	3	0	3	0.41	3	1	3_0.gif
167.045	1	2	0	2	0.589	2	1	2_0.gif
168.045	1	1	0	1	0.586	1	1	1_0.gif
169.045	1	3	0	3	0.496	3	1	3_0.gif
170.045	1	2	0	2	0.469	2	1	2_0.gif
171.045	1	3	0	3	0.457	3	1	3_0.gif
172.045	1	4	0	4	0.507	4	1	4_0.gif
173.045	1	1	0	1	0.913	1	1	1_0.gif
174.045	1	4	0	1	0.016	4	0	4_0.gif
175.045	1	3	0	3	0.53	3	1	3_0.gif
176.047	1	1	2	6	0	4	n/a	1_2.gif
177.047	1	2	2	6	0	3	n/a	2_2.gif
178.047	1	4	2	1	0.064	1	1	4_2.gif
179.047	1	3	2	2	0.022	2	1	3_2.gif
180.047	1	2	2	3	0.114	4	0	2_2.gif
181.047	1	1	2	3	0.063	3	1	1_2.gif
182.047	1	2	2	2	0.034	2	1	2_2.gif
183.047	1	1	2	1	0.028	1	1	1_2.gif
184.047	1	4	2	2	0.014	2	1	4_2.gif
185.047	1	1	2	1	0.015	1	1	1_2.gif
186.047	1	3	2	2	0.127	4	0	3_2.gif
187.047	1	1	2	6	0	1	n/a	1_2.gif
188.047	1	4	2	6	0	3	n/a	4_2.gif
189.047	1	1	2	1	0.143	1	1	1_2.gif
190.047	1	2	2	4	0.067	4	1	2_2.gif
191.047	1	3	2	1	0.017	1	1	3_2.gif
192.048	1	4	0	2	0.039	4	0	4_0.gif
193.048	1	1	0	4	0.015	1	0	1_0.gif
194.048	1	2	0	2	0.424	2	1	2_0.gif
195.048	1	1	0	1	0.99	1	1	1_0.gif
196.048	1	3	0	1	0.015	3	0	3_0.gif
197.048	1	2	0	2	0.316	2	1	2_0.gif
198.048	1	1	0	1	0.538	1	1	1_0.gif
199.048	1	3	0	3	0.37	3	1	3_0.gif
200.048	1	1	0	1	0.373	1	1	1_0.gif
201.048	1	2	0	2	0.346	2	1	2_0.gif
202.048	1	1	0	1	0.309	1	1	1_0.gif
203.048	1	4	0	4	0.462	4	1	4_0.gif
204.048	1	2	0	2	0.374	2	1	2_0.gif
205.048	1	4	0	4	0.369	4	1	4_0.gif
206.048	1	1	0	1	0.278	1	1	1_0.gif
207.048	1	2	0	2	0.297	2	1	2_0.gif
208.049	1	4	2	4	0.383	1	0	4_2.gif
209.049	1	2	2	6	0	2	n/a	2_2.gif
210.049	1	1	2	4	0.187	4	1	1_2.gif
211.049	1	2	2	2	0.038	2	1	2_2.gif
212.049	1	4	2	1	0.017	1	1	4_2.gif
213.049	1	1	2	2	0.053	2	1	1_2.gif
214.049	1	3	2	4	0.121	4	1	3_2.gif
215.049	1	2	2	1	0.081	1	1	2_2.gif
216.049	1	3	2	3	0.075	3	1	3_2.gif
217.049	1	4	2	2	0.067	2	1	4_2.gif
218.049	1	1	2	3	0.158	3	1	1_2.gif
219.049	1	4	2	4	0.085	4	1	4_2.gif
220.049	1	2	2	1	0.014	1	1	2_2.gif
221.049	1	1	2	4	0.015	4	1	1_2.gif
222.049	1	2	2	2	0.014	2	1	2_2.gif
223.049	1	1	2	1	0.013	1	1	1_2.gif
224.05	1	3	0	2	0.014	3	0	3_0.gif
225.05	1	1	0	3	0.014	1	0	1_0.gif
226.05	1	2	0	2	0.49	2	1	2_0.gif
227.05	1	4	0	4	0.451	4	1	4_0.gif
228.05	1	1	0	1	0.372	1	1	1_0.gif
229.05	1	2	0	2	0.42	2	1	2_0.gif
230.05	1	3	0	3	0.434	3	1	3_0.gif
231.05	1	1	0	1	0.364	1	1	1_0.gif
232.05	1	3	0	3	0.443	3	1	3_0.gif
233.05	1	2	0	2	0.337	2	1	2_0.gif
234.05	1	1	0	1	0.361	1	1	1_0.gif
235.05	1	4	0	4	0.381	4	1	4_0.gif
236.05	1	3	0	3	0.493	3	1	3_0.gif
237.05	1	2	0	2	0.505	2	1	2_0.gif
238.05	1	3	0	3	0.508	3	1	3_0.gif
239.05	1	4	0	4	0.55	4	1	4_0.gif
240.052	1	2	2	6	0	3	n/a	2_2.gif
241.052	1	1	2	6	0	4	n/a	1_2.gif
242.052	1	4	2	2	0.199	2	1	4_2.gif
243.052	1	2	2	1	0.134	1	1	2_2.gif
244.052	1	3	2	3	0.141	4	0	3_2.gif
245.052	1	4	2	4	0.167	2	0	4_2.gif
246.052	1	2	2	6	0	3	n/a	2_2.gif
247.052	1	3	2	4	0.118	4	1	3_2.gif
248.052	1	4	2	2	0.079	2	1	4_2.gif
249.052	1	1	2	4	0.02	3	0	1_2.gif
250.052	1	2	2	6	0	4	n/a	2_2.gif
251.052	1	3	2	1	0.03	1	1	3_2.gif
252.052	1	2	2	2	0.015	2	1	2_2.gif
253.052	1	1	2	3	0.013	3	1	1_2.gif
254.052	1	3	2	2	0.018	2	1	3_2.gif
255.052	1	1	2	1	0.014	1	1	1_2.gif
