onset	duration	nback_display	trial_type	response	response_time	correct_response	correct	stim_file
0	1	4	0	4	0.757	4	1	4_0.gif
1	1	3	0	4	0.002	3	0	3_0.gif
2	1	4	0	4	0.396	4	1	4_0.gif
3	1	3	0	3	0.364	3	1	3_0.gif
4	1	1	0	1	0.392	1	1	1_0.gif
5	1	3	0	3	0.386	3	1	3_0.gif
6	1	2	0	2	0.394	2	1	2_0.gif
7	1	3	0	3	0.343	3	1	3_0.gif
8	1	1	0	1	0.275	1	1	1_0.gif
9	1	2	0	2	0.377	2	1	2_0.gif
10	1	3	0	3	0.296	3	1	3_0.gif
11	1	2	0	2	0.432	2	1	2_0.gif
12	1	3	0	3	0.383	3	1	3_0.gif
13	1	2	0	2	0.363	2	1	2_0.gif
14	1	3	0	3	0.46	3	1	3_0.gif
15	1	1	0	1	0.555	1	1	1_0.gif
16	1	3	2	3	0.469	3	1	3_2.gif
17	1	4	2	4	0.525	1	0	4_2.gif
18	1	3	2	3	0.446	3	1	3_2.gif
19	1	2	2	2	0.35	4	0	2_2.gif
20	1	1	2	1	0.288	3	0	1_2.gif
21	1	2	2	2	0.383	2	1	2_2.gif
22	1	3	2	3	0.242	1	0	3_2.gif
23	1	4	2	4	0.304	2	0	4_2.gif
24	1	1	2	1	0.328	3	0	1_2.gif
25	1	4	2	4	0.29	4	1	4_2.gif
26	1	3	2	3	0.39	1	0	3_2.gif
27	1	1	2	1	0.384	4	0	1_2.gif
28	1	2	2	2	0.352	3	0	2_2.gif
29	1	3	2	3	0.477	1	0	3_2.gif
30	1	1	2	1	0.437	2	0	1_2.gif
31	1	2	2	2	0.318	3	0	2_2.gif
32.001	1	3	0	3	0.257	3	1	3_0.gif
33.001	1	4	0	4	0.451	4	1	4_0.gif
34.001	1	2	0	2	0.363	2	1	2_0.gif
35.001	1	4	0	4	0.379	4	1	4_0.gif
36.001	1	1	0	1	0.467	1	1	1_0.gif
37.001	1	4	0	4	0.481	4	1	4_0.gif
38.001	1	3	0	3	0.391	3	1	3_0.gif
39.001	1	4	0	4	0.492	4	1	4_0.gif
40.001	1	2	0	2	0.343	2	1	2_0.gif
41.001	1	3	0	3	0.359	3	1	3_0.gif
42.001	1	1	0	1	0.262	1	1	1_0.gif
43.001	1	4	0	4	0.456	4	1	4_0.gif
44.001	1	1	0	1	0.302	1	1	1_0.gif
45.001	1	4	0	4	0.22	4	1	4_0.gif
46.001	1	2	0	2	0.306	2	1	2_0.gif
47.001	1	3	0	3	0.369	3	1	3_0.gif
48.001	1	2	2	2	0.542	2	1	2_2.gif
49.001	1	1	2	1	0.277	3	0	1_2.gif
50.001	1	4	2	6	0	2	n/a	4_2.gif
51.001	1	3	2	4	0.129	1	0	3_2.gif
52.001	1	4	2	4	0.443	4	1	4_2.gif
53.001	1	1	2	1	0.271	3	0	1_2.gif
54.001	1	2	2	2	0.323	4	0	2_2.gif
55.001	1	4	2	4	0.542	1	0	4_2.gif
56.001	1	1	2	1	0.301	2	0	1_2.gif
57.001	1	4	2	4	0.423	4	1	4_2.gif
58.001	1	3	2	3	0.411	1	0	3_2.gif
59.001	1	1	2	1	0.279	4	0	1_2.gif
60.001	1	2	2	2	0.262	3	0	2_2.gif
61.001	1	4	2	4	0.39	1	0	4_2.gif
62.001	1	3	2	3	0.382	2	0	3_2.gif
63.001	1	4	2	4	0.23	4	1	4_2.gif
64.001	1	3	0	3	0.349	3	1	3_0.gif
65.001	1	4	0	4	0.296	4	1	4_0.gif
66.001	1	2	0	2	0.345	2	1	2_0.gif
67.001	1	4	0	4	0.489	4	1	4_0.gif
68.001	1	1	0	1	0.402	1	1	1_0.gif
69.001	1	4	0	4	0.507	4	1	4_0.gif
70.001	1	1	0	1	0.435	1	1	1_0.gif
71.001	1	4	0	4	0.292	4	1	4_0.gif
72.001	1	1	0	1	0.237	1	1	1_0.gif
73.001	1	3	0	3	0.472	3	1	3_0.gif
74.001	1	2	0	2	0.373	2	1	2_0.gif
75.001	1	4	0	4	0.41	4	1	4_0.gif
76.001	1	1	0	1	0.314	1	1	1_0.gif
77.001	1	3	0	3	0.327	3	1	3_0.gif
78.001	1	2	0	2	0.376	2	1	2_0.gif
79.001	1	3	0	3	0.449	3	1	3_0.gif
80.002	1	4	2	4	0.398	2	0	4_2.gif
81.002	1	2	2	2	0.283	3	0	2_2.gif
82.002	1	1	2	1	0.29	4	0	1_2.gif
83.002	1	2	2	2	0.419	2	1	2_2.gif
84.002	1	3	2	3	0.369	1	0	3_2.gif
85.002	1	1	2	1	0.263	2	0	1_2.gif
86.002	1	2	2	2	0.358	3	0	2_2.gif
87.002	1	4	2	4	0.281	1	0	4_2.gif
88.002	1	3	2	3	0.245	2	0	3_2.gif
89.002	1	1	2	1	0.312	4	0	1_2.gif
90.002	1	3	2	3	0.352	3	1	3_2.gif
91.002	1	4	2	4	0.484	1	0	4_2.gif
92.002	1	2	2	2	0.277	3	0	2_2.gif
93.002	1	3	2	3	0.388	4	0	3_2.gif
94.002	1	1	2	1	0.249	2	0	1_2.gif
95.002	1	3	2	3	0.363	3	1	3_2.gif
96.002	1	4	0	4	0.466	4	1	4_0.gif
97.002	1	2	0	2	0.302	2	1	2_0.gif
98.002	1	1	0	1	0.456	1	1	1_0.gif
99.002	1	3	0	3	0.303	3	1	3_0.gif
100.002	1	1	0	1	0.346	1	1	1_0.gif
101.002	1	2	0	2	0.391	2	1	2_0.gif
102.002	1	1	0	1	0.425	1	1	1_0.gif
103.002	1	2	0	2	0.355	2	1	2_0.gif
104.002	1	4	0	4	0.619	4	1	4_0.gif
105.002	1	3	0	3	0.402	3	1	3_0.gif
106.002	1	4	0	4	0.488	4	1	4_0.gif
107.002	1	2	0	2	0.412	2	1	2_0.gif
108.002	1	3	0	3	0.365	3	1	3_0.gif
109.002	1	2	0	2	0.345	2	1	2_0.gif
110.002	1	4	0	4	0.621	4	1	4_0.gif
111.002	1	1	0	1	0.385	1	1	1_0.gif
112.003	1	3	2	3	0.445	4	0	3_2.gif
113.003	1	1	2	1	0.454	1	1	1_2.gif
114.003	1	2	2	2	0.302	3	0	2_2.gif
115.003	1	1	2	1	0.423	1	1	1_2.gif
116.003	1	3	2	3	0.335	2	0	3_2.gif
117.003	1	1	2	1	0.41	1	1	1_2.gif
118.003	1	3	2	3	0.371	3	1	3_2.gif
119.003	1	2	2	2	0.321	1	0	2_2.gif
120.003	1	3	2	3	0.418	3	1	3_2.gif
121.003	1	1	2	1	0.262	2	0	1_2.gif
122.003	1	4	2	2	0.27	3	0	4_2.gif
123.003	1	1	2	1	0.418	1	1	1_2.gif
124.003	1	2	2	2	0.289	4	0	2_2.gif
125.003	1	3	2	3	0.33	1	0	3_2.gif
126.003	1	4	2	4	0.4	2	0	4_2.gif
127.003	1	1	2	1	0.242	3	0	1_2.gif
128.003	1	2	0	2	0.411	2	1	2_0.gif
129.003	1	3	0	3	0.276	3	1	3_0.gif
130.003	1	4	0	4	0.348	4	1	4_0.gif
131.003	1	1	0	1	0.34	1	1	1_0.gif
132.003	1	4	0	4	0.469	4	1	4_0.gif
133.003	1	2	0	2	0.398	2	1	2_0.gif
134.007	1	1	0	1	0.284	1	1	1_0.gif
135.007	1	2	0	2	0.379	2	1	2_0.gif
136.007	1	3	0	3	0.31	3	1	3_0.gif
137.007	1	2	0	2	0.351	2	1	2_0.gif
138.007	1	3	0	3	0.377	3	1	3_0.gif
139.007	1	1	0	1	0.432	1	1	1_0.gif
140.007	1	2	0	2	0.337	2	1	2_0.gif
141.007	1	4	0	4	0.486	4	1	4_0.gif
142.007	1	3	0	3	0.377	3	1	3_0.gif
143.007	1	2	0	2	0.352	2	1	2_0.gif
144.007	1	4	2	4	0.509	3	0	4_2.gif
145.007	1	2	2	2	0.364	2	1	2_2.gif
146.007	1	1	2	1	0.459	4	0	1_2.gif
147.007	1	3	2	3	0.276	2	0	3_2.gif
148.007	1	2	2	2	0.418	1	0	2_2.gif
149.008	1	4	2	4	0.286	3	0	4_2.gif
150.008	1	3	2	3	0.353	2	0	3_2.gif
151.008	1	2	2	2	0.266	4	0	2_2.gif
152.008	1	4	2	4	0.392	3	0	4_2.gif
153.008	1	3	2	3	0.406	2	0	3_2.gif
154.008	1	4	2	4	0.463	4	1	4_2.gif
155.008	1	1	2	1	0.377	3	0	1_2.gif
156.008	1	3	2	3	0.315	4	0	3_2.gif
157.008	1	1	2	1	0.328	1	1	1_2.gif
158.008	1	3	2	3	0.298	3	1	3_2.gif
159.008	1	1	2	2	0.31	1	0	1_2.gif
160.009	1	2	0	2	0.474	2	1	2_0.gif
161.009	1	3	0	3	0.413	3	1	3_0.gif
162.009	1	2	0	2	0.416	2	1	2_0.gif
163.009	1	4	0	4	0.486	4	1	4_0.gif
164.009	1	3	0	3	0.334	3	1	3_0.gif
165.009	1	4	0	2	0.293	4	0	4_0.gif
166.009	1	3	0	3	0.463	3	1	3_0.gif
167.009	1	4	0	4	0.451	4	1	4_0.gif
168.009	1	1	0	1	0.448	1	1	1_0.gif
169.009	1	2	0	2	0.367	2	1	2_0.gif
170.009	1	3	0	3	0.384	3	1	3_0.gif
171.009	1	1	0	1	0.277	1	1	1_0.gif
172.009	1	3	0	3	0.338	3	1	3_0.gif
173.009	1	1	0	1	0.336	1	1	1_0.gif
174.009	1	4	0	4	0.393	4	1	4_0.gif
175.009	1	1	0	1	0.361	1	1	1_0.gif
176.009	1	3	2	3	0.438	4	0	3_2.gif
177.009	1	4	2	4	0.444	1	0	4_2.gif
178.009	1	1	2	1	0.375	3	0	1_2.gif
179.009	1	2	2	2	0.367	4	0	2_2.gif
180.009	1	1	2	1	0.443	1	1	1_2.gif
181.009	1	3	2	3	0.328	2	0	3_2.gif
182.009	1	2	2	2	0.436	1	0	2_2.gif
183.009	1	3	2	3	0.368	3	1	3_2.gif
184.009	1	2	2	2	0.402	2	1	2_2.gif
185.009	1	3	2	3	0.407	3	1	3_2.gif
186.009	1	1	2	1	0.378	2	0	1_2.gif
187.009	1	3	2	3	0.416	3	1	3_2.gif
188.009	1	2	2	2	0.347	1	0	2_2.gif
189.009	1	3	2	3	0.58	3	1	3_2.gif
190.009	1	2	2	2	0.327	2	1	2_2.gif
191.009	1	3	2	3	0.43	3	1	3_2.gif
192.009	1	1	0	1	0.452	1	1	1_0.gif
193.009	1	3	0	3	0.397	3	1	3_0.gif
194.009	1	1	0	1	0.429	1	1	1_0.gif
195.009	1	4	0	4	0.468	4	1	4_0.gif
196.009	1	3	0	3	0.354	3	1	3_0.gif
197.009	1	4	0	4	0.36	4	1	4_0.gif
198.009	1	3	0	3	0.349	3	1	3_0.gif
199.009	1	1	0	1	0.395	1	1	1_0.gif
200.009	1	3	0	3	0.326	3	1	3_0.gif
201.009	1	2	0	2	0.358	2	1	2_0.gif
202.009	1	3	0	3	0.358	3	1	3_0.gif
203.009	1	1	0	1	0.368	1	1	1_0.gif
204.01	1	2	0	2	0.376	2	1	2_0.gif
205.01	1	3	0	3	0.383	3	1	3_0.gif
206.01	1	2	0	2	0.451	2	1	2_0.gif
207.01	1	3	0	3	0.263	3	1	3_0.gif
208.01	1	2	2	2	0.341	2	1	2_2.gif
209.01	1	3	2	3	0.496	3	1	3_2.gif
210.01	1	1	2	1	0.367	2	0	1_2.gif
211.01	1	3	2	3	0.355	3	1	3_2.gif
212.01	1	4	2	4	0.364	1	0	4_2.gif
213.01	1	3	2	3	0.352	3	1	3_2.gif
214.01	1	2	2	2	0.273	4	0	2_2.gif
215.01	1	1	2	1	0.288	3	0	1_2.gif
216.01	1	2	2	2	0.298	2	1	2_2.gif
217.01	1	3	2	3	0.3	1	0	3_2.gif
218.01	1	4	2	4	0.376	2	0	4_2.gif
219.01	1	1	2	1	0.273	3	0	1_2.gif
220.01	1	4	2	4	0.598	4	1	4_2.gif
221.01	1	3	2	3	0.335	1	0	3_2.gif
222.01	1	1	2	1	0.429	4	0	1_2.gif
223.01	1	2	2	2	0.317	3	0	2_2.gif
224.01	1	3	0	3	0.408	3	1	3_0.gif
225.01	1	1	0	1	0.387	1	1	1_0.gif
226.01	1	2	0	2	0.352	2	1	2_0.gif
227.01	1	3	0	3	0.387	3	1	3_0.gif
228.01	1	4	0	4	0.275	4	1	4_0.gif
229.01	1	2	0	2	0.425	2	1	2_0.gif
230.01	1	4	0	4	0.496	4	1	4_0.gif
231.01	1	1	0	1	0.289	1	1	1_0.gif
232.01	1	4	0	4	0.408	4	1	4_0.gif
233.01	1	3	0	3	0.329	3	1	3_0.gif
234.01	1	4	0	4	0.534	4	1	4_0.gif
235.01	1	2	0	2	0.346	2	1	2_0.gif
236.01	1	3	0	3	0.409	3	1	3_0.gif
237.01	1	1	0	1	0.356	1	1	1_0.gif
238.01	1	4	0	4	0.331	4	1	4_0.gif
239.01	1	1	0	1	0.299	1	1	1_0.gif
240.01	1	4	2	4	0.422	4	1	4_2.gif
241.01	1	2	2	2	0.333	1	0	2_2.gif
242.01	1	3	2	3	0.307	4	0	3_2.gif
243.01	1	2	2	2	0.281	2	1	2_2.gif
244.01	1	1	2	1	0.282	3	0	1_2.gif
245.01	1	4	2	4	0.374	2	0	4_2.gif
246.01	1	3	2	3	0.408	1	0	3_2.gif
247.01	1	4	2	4	0.446	4	1	4_2.gif
248.01	1	1	2	1	0.371	3	0	1_2.gif
249.01	1	2	2	2	0.281	4	0	2_2.gif
250.01	1	4	2	4	0.491	1	0	4_2.gif
251.01	1	1	2	1	0.427	2	0	1_2.gif
252.01	1	4	2	4	0.5	4	1	4_2.gif
253.01	1	3	2	3	0.344	1	0	3_2.gif
254.01	1	1	2	1	0.256	4	0	1_2.gif
255.01	1	2	2	2	0.317	3	0	2_2.gif
