onset	duration	nback_display	trial_type	response	response_time	correct_response	correct	stim_file
0	1	4	0	6	0	4	n/a	4_0.gif
1	1	3	0	4	0.04	3	0	3_0.gif
2	1	2	0	2	0.551	2	1	2_0.gif
3	1	4	0	4	0.48	4	1	4_0.gif
4	1	3	0	3	0.396	3	1	3_0.gif
5	1	1	0	1	0.39	1	1	1_0.gif
6	1	4	0	4	0.498	4	1	4_0.gif
7	1	3	0	3	0.33	3	1	3_0.gif
8	1	4	0	4	0.451	4	1	4_0.gif
9	1	3	0	3	0.417	3	1	3_0.gif
10	1	1	0	1	0.463	1	1	1_0.gif
11	1	2	0	2	0.422	2	1	2_0.gif
12	1	3	0	3	0.355	3	1	3_0.gif
13	1	1	0	3	0.008	1	0	1_0.gif
14	1	3	0	3	0.432	3	1	3_0.gif
15	1	2	0	2	0.484	2	1	2_0.gif
16	1	3	2	6	0	3	n/a	3_2.gif
17	1	1	2	6	0	2	n/a	1_2.gif
18	1	2	2	3	0.176	3	1	2_2.gif
19	1	4	2	1	0.015	1	1	4_2.gif
20	1	3	2	2	0.009	2	1	3_2.gif
21	1	4	2	3	0.867	4	0	4_2.gif
22	1	1	2	3	0.011	3	1	1_2.gif
23	1	2	2	6	0	4	n/a	2_2.gif
24.001	1	1	2	4	0.053	1	0	1_2.gif
25.001	1	3	2	1	0.009	2	0	3_2.gif
26.001	1	2	2	2	0.008	1	0	2_2.gif
27.001	1	3	2	1	0.007	3	0	3_2.gif
28.001	1	2	2	3	0.01	2	0	2_2.gif
29.001	1	1	2	2	0.024	3	0	1_2.gif
30.001	1	2	2	3	0.041	2	0	2_2.gif
31.001	1	3	2	2	0.007	1	0	3_2.gif
32.001	1	1	0	1	0.009	1	1	1_0.gif
33.001	1	2	0	1	0.021	2	0	2_0.gif
34.001	1	3	0	3	0.429	3	1	3_0.gif
35.001	1	4	0	4	0.447	4	1	4_0.gif
36.001	1	2	0	2	0.412	2	1	2_0.gif
37.001	1	4	0	4	0.728	4	1	4_0.gif
38.001	1	3	0	3	0.508	3	1	3_0.gif
39.001	1	2	0	2	0.496	2	1	2_0.gif
40.001	1	3	0	3	0.453	3	1	3_0.gif
41.001	1	1	0	1	0.49	1	1	1_0.gif
42.001	1	4	0	4	0.373	4	1	4_0.gif
43.001	1	1	0	1	0.521	1	1	1_0.gif
44.001	1	2	0	2	0.601	2	1	2_0.gif
45.001	1	1	0	1	0.602	1	1	1_0.gif
46.001	1	4	0	4	0.509	4	1	4_0.gif
47.001	1	3	0	3	0.424	3	1	3_0.gif
48.001	1	1	2	6	0	4	n/a	1_2.gif
49.001	1	4	2	6	0	3	n/a	4_2.gif
50.001	1	3	2	1	0.372	1	1	3_2.gif
51.001	1	2	2	4	0.297	4	1	2_2.gif
52.001	1	4	2	3	0.199	3	1	4_2.gif
53.001	1	2	2	2	0.22	2	1	2_2.gif
54.001	1	4	2	4	0.201	4	1	4_2.gif
55.001	1	3	2	2	0.188	2	1	3_2.gif
56.001	1	4	2	4	0.138	4	1	4_2.gif
57.001	1	3	2	2	0.016	3	0	3_2.gif
58.001	1	4	2	4	0.009	4	1	4_2.gif
59.001	1	3	2	3	0.009	3	1	3_2.gif
60.001	1	4	2	4	0.009	4	1	4_2.gif
61.001	1	2	2	3	0.008	3	1	2_2.gif
62.001	1	1	2	4	0.008	4	1	1_2.gif
63.001	1	3	2	2	0.673	2	1	3_2.gif
64.002	1	4	0	1	0.525	4	0	4_0.gif
65.002	1	2	0	4	0.234	2	0	2_0.gif
66.002	1	4	0	2	0.008	4	0	4_0.gif
67.002	1	2	0	4	0.008	2	0	2_0.gif
68.002	1	4	0	2	0.008	4	0	4_0.gif
69.002	1	1	0	1	0.618	1	1	1_0.gif
70.002	1	2	0	2	0.463	2	1	2_0.gif
71.002	1	1	0	1	0.484	1	1	1_0.gif
72.002	1	2	0	2	0.391	2	1	2_0.gif
73.002	1	4	0	4	0.398	4	1	4_0.gif
74.002	1	1	0	1	0.477	1	1	1_0.gif
75.002	1	2	0	2	0.415	2	1	2_0.gif
76.002	1	4	0	4	0.35	4	1	4_0.gif
77.002	1	2	0	2	0.521	2	1	2_0.gif
78.002	1	3	0	3	0.342	3	1	3_0.gif
79.002	1	2	0	2	0.316	2	1	2_0.gif
80.002	1	1	2	6	0	3	n/a	1_2.gif
81.002	1	3	2	6	0	2	n/a	3_2.gif
82.002	1	1	2	1	0.159	1	1	1_2.gif
83.002	1	2	2	3	0.014	3	1	2_2.gif
84.002	1	3	2	1	0.016	1	1	3_2.gif
85.002	1	4	2	2	0.008	2	1	4_2.gif
86.002	1	1	2	3	0.009	3	1	1_2.gif
87.002	1	4	2	4	0.009	4	1	4_2.gif
88.002	1	2	2	1	0.018	1	1	2_2.gif
89.002	1	1	2	4	0.008	4	1	1_2.gif
90.002	1	2	2	2	0.009	2	1	2_2.gif
91.002	1	1	2	1	0.009	1	1	1_2.gif
92.002	1	3	2	2	0.033	2	1	3_2.gif
93.002	1	4	2	1	0.132	1	1	4_2.gif
94.002	1	3	2	3	0.09	3	1	3_2.gif
95.002	1	2	2	4	0.136	4	1	2_2.gif
96.003	1	1	0	3	0.013	1	0	1_0.gif
97.003	1	3	0	1	0.01	3	0	3_0.gif
98.003	1	1	0	3	0.008	1	0	1_0.gif
99.003	1	2	0	2	0.691	2	1	2_0.gif
100.003	1	1	0	1	0.645	1	1	1_0.gif
101.003	1	2	0	2	0.54	2	1	2_0.gif
102.003	1	4	0	4	0.546	4	1	4_0.gif
103.003	1	1	0	1	0.565	1	1	1_0.gif
104.003	1	3	0	3	0.415	3	1	3_0.gif
105.003	1	1	0	1	0.512	1	1	1_0.gif
106.012	1	3	0	3	0.423	3	1	3_0.gif
107.012	1	1	0	1	0.4	1	1	1_0.gif
108.012	1	3	0	3	0.55	3	1	3_0.gif
109.012	1	1	0	1	0.424	1	1	1_0.gif
110.012	1	3	0	3	0.377	3	1	3_0.gif
111.012	1	1	0	1	0.395	1	1	1_0.gif
112.012	1	2	2	6	0	3	n/a	2_2.gif
113.012	1	1	2	6	0	1	n/a	1_2.gif
114.012	1	3	2	2	0.287	2	1	3_2.gif
115.012	1	2	2	1	0.191	1	1	2_2.gif
116.012	1	3	2	3	0.149	3	1	3_2.gif
117.012	1	4	2	2	0.134	2	1	4_2.gif
118.013	1	1	2	3	0.09	3	1	1_2.gif
119.013	1	2	2	4	0.008	4	1	2_2.gif
120.013	1	3	2	1	0.008	1	1	3_2.gif
121.013	1	4	2	3	0.588	2	0	4_2.gif
122.013	1	1	2	4	0.335	3	0	1_2.gif
123.013	1	4	2	1	0.265	4	0	4_2.gif
124.013	1	2	2	4	0.14	1	0	2_2.gif
125.013	1	1	2	1	0.033	4	0	1_2.gif
126.013	1	3	2	2	0.008	2	1	3_2.gif
127.013	1	2	2	1	0.009	1	1	2_2.gif
128.014	1	1	0	1	0.843	1	1	1_0.gif
129.014	1	2	0	1	0.008	2	0	2_0.gif
130.014	1	1	0	1	0.767	1	1	1_0.gif
131.014	1	4	0	4	0.589	4	1	4_0.gif
132.014	1	3	0	3	0.511	3	1	3_0.gif
133.014	1	1	0	1	0.46	1	1	1_0.gif
134.014	1	2	0	2	0.441	2	1	2_0.gif
135.014	1	1	0	1	0.497	1	1	1_0.gif
136.014	1	2	0	2	0.573	2	1	2_0.gif
137.014	1	1	0	1	0.474	1	1	1_0.gif
138.014	1	3	0	3	0.422	3	1	3_0.gif
139.014	1	1	0	1	0.435	1	1	1_0.gif
140.014	1	4	0	4	0.587	4	1	4_0.gif
141.014	1	3	0	3	0.512	3	1	3_0.gif
142.014	1	2	0	2	0.603	2	1	2_0.gif
143.014	1	1	0	1	0.596	1	1	1_0.gif
144.015	1	3	2	6	0	2	n/a	3_2.gif
145.015	1	2	2	6	0	1	n/a	2_2.gif
146.015	1	1	2	3	0.238	3	1	1_2.gif
147.015	1	2	2	2	0.233	2	1	2_2.gif
148.015	1	3	2	1	0.084	1	1	3_2.gif
149.015	1	2	2	2	0.034	2	1	2_2.gif
150.015	1	1	2	3	0.008	3	1	1_2.gif
151.015	1	3	2	2	0.008	2	1	3_2.gif
152.015	1	4	2	1	0.008	1	1	4_2.gif
153.015	1	3	2	3	0.008	3	1	3_2.gif
154.015	1	4	2	3	0.558	4	0	4_2.gif
155.015	1	2	2	4	0.415	3	0	2_2.gif
156.015	1	3	2	3	0.45	4	0	3_2.gif
157.015	1	2	2	2	0.008	2	1	2_2.gif
158.015	1	4	2	3	0.009	3	1	4_2.gif
159.015	1	3	2	6	0	2	n/a	3_2.gif
160.015	1	2	0	4	0.215	2	0	2_0.gif
161.015	1	4	0	4	0.726	4	1	4_0.gif
162.015	1	3	0	4	0.009	3	0	3_0.gif
163.015	1	4	0	4	0.67	4	1	4_0.gif
164.015	1	1	0	1	0.772	1	1	1_0.gif
165.015	1	2	0	2	0.693	2	1	2_0.gif
166.015	1	1	0	1	0.78	1	1	1_0.gif
167.015	1	4	0	1	0.008	4	0	4_0.gif
168.015	1	1	0	1	0.515	1	1	1_0.gif
169.015	1	3	0	3	0.455	3	1	3_0.gif
170.015	1	4	0	4	0.524	4	1	4_0.gif
171.016	1	3	0	3	0.472	3	1	3_0.gif
172.016	1	2	0	2	0.476	2	1	2_0.gif
173.016	1	4	0	4	0.527	4	1	4_0.gif
174.016	1	3	0	3	0.403	3	1	3_0.gif
175.016	1	2	0	2	0.4	2	1	2_0.gif
176.016	1	3	2	6	0	3	n/a	3_2.gif
177.016	1	2	2	6	0	2	n/a	2_2.gif
178.016	1	1	2	3	0.222	3	1	1_2.gif
179.016	1	2	2	2	0.208	2	1	2_2.gif
180.016	1	4	2	1	0.064	1	1	4_2.gif
181.016	1	2	2	2	0.089	2	1	2_2.gif
182.016	1	1	2	4	0.008	4	1	1_2.gif
183.016	1	2	2	2	0.01	2	1	2_2.gif
184.016	1	3	2	1	0.009	1	1	3_2.gif
185.016	1	4	2	2	0.009	2	1	4_2.gif
186.017	1	1	2	3	0.008	3	1	1_2.gif
187.017	1	3	2	5	0.008	4	n/a	3_2.gif
188.017	1	2	2	1	0.451	1	1	2_2.gif
189.017	1	4	2	6	0	3	n/a	4_2.gif
190.017	1	3	2	2	0.242	2	1	3_2.gif
191.017	1	1	2	4	0.315	4	1	1_2.gif
192.017	1	4	0	3	0.102	4	0	4_0.gif
193.018	1	3	0	4	0.008	3	0	3_0.gif
194.018	1	4	0	3	0.008	4	0	4_0.gif
195.018	1	3	0	3	0.622	3	1	3_0.gif
196.018	1	1	0	1	0.672	1	1	1_0.gif
197.018	1	2	0	2	0.559	2	1	2_0.gif
198.018	1	3	0	3	0.394	3	1	3_0.gif
199.018	1	1	0	1	0.416	1	1	1_0.gif
200.018	1	3	0	3	0.416	3	1	3_0.gif
201.018	1	2	0	2	0.463	2	1	2_0.gif
202.018	1	3	0	3	0.495	3	1	3_0.gif
203.018	1	1	0	1	0.479	1	1	1_0.gif
204.018	1	2	0	2	0.497	2	1	2_0.gif
205.018	1	4	0	4	0.443	4	1	4_0.gif
206.018	1	3	0	3	0.382	3	1	3_0.gif
207.018	1	4	0	3	0.438	4	0	4_0.gif
208.018	1	1	2	4	0.008	3	0	1_2.gif
209.018	1	2	2	6	0	4	n/a	2_2.gif
210.018	1	1	2	1	0.141	1	1	1_2.gif
211.018	1	3	2	2	0.127	2	1	3_2.gif
212.018	1	2	2	1	0.008	1	1	2_2.gif
213.018	1	3	2	3	0.008	3	1	3_2.gif
214.018	1	2	2	2	0.008	2	1	2_2.gif
215.018	1	1	2	3	0.008	3	1	1_2.gif
216.018	1	2	2	3	0.98	2	0	2_2.gif
217.018	1	3	2	3	0.008	1	0	3_2.gif
218.018	1	1	2	1	0.008	2	0	1_2.gif
219.018	1	2	2	2	0.008	3	0	2_2.gif
220.018	1	3	2	3	0.011	1	0	3_2.gif
221.018	1	4	2	1	0.009	2	0	4_2.gif
222.018	1	2	2	2	0.008	3	0	2_2.gif
223.018	1	4	2	3	0.008	4	0	4_2.gif
224.018	1	3	0	2	0.182	3	0	3_0.gif
225.018	1	2	0	3	0.009	2	0	2_0.gif
226.018	1	3	0	3	0.552	3	1	3_0.gif
227.018	1	1	0	1	0.442	1	1	1_0.gif
228.018	1	4	0	4	0.479	4	1	4_0.gif
229.018	1	1	0	1	0.439	1	1	1_0.gif
230.018	1	2	0	2	0.39	2	1	2_0.gif
231.018	1	1	0	1	0.385	1	1	1_0.gif
232.018	1	4	0	4	0.379	4	1	4_0.gif
233.018	1	3	0	3	0.407	3	1	3_0.gif
234.018	1	1	0	1	0.341	1	1	1_0.gif
235.018	1	4	0	4	0.743	4	1	4_0.gif
236.018	1	3	0	3	0.523	3	1	3_0.gif
237.018	1	2	0	2	0.504	2	1	2_0.gif
238.018	1	4	0	4	0.599	4	1	4_0.gif
239.018	1	2	0	2	0.464	2	1	2_0.gif
240.019	1	4	2	6	0	4	n/a	4_2.gif
241.019	1	3	2	6	0	2	n/a	3_2.gif
242.019	1	4	2	4	0.226	4	1	4_2.gif
243.019	1	3	2	3	0.121	3	1	3_2.gif
244.019	1	4	2	4	0.008	4	1	4_2.gif
245.019	1	3	2	3	0.008	3	1	3_2.gif
246.019	1	4	2	4	0.008	4	1	4_2.gif
247.019	1	2	2	3	0.008	3	1	2_2.gif
248.019	1	1	2	4	0.009	4	1	1_2.gif
249.019	1	3	2	1	0.475	2	0	3_2.gif
250.019	1	4	2	1	0.671	1	1	4_2.gif
251.019	1	2	2	3	0.293	3	1	2_2.gif
252.019	1	4	2	6	0	4	n/a	4_2.gif
253.019	1	2	2	2	0.244	2	1	2_2.gif
254.019	1	4	2	4	0.098	4	1	4_2.gif
255.019	1	1	2	2	0.114	2	1	1_2.gif
