onset	duration	nback_display	trial_type	response	response_time	correct_response	correct	stim_file
0.001	1.5	2	0	2	0.86	2	1	2_0.gif
1.501	1.5	3	0	3	0.381	3	1	3_0.gif
3.001	1.5	1	0	1	0.375	1	1	1_0.gif
4.501	1.5	3	0	3	0.533	3	1	3_0.gif
6.001	1.5	2	0	2	0.603	2	1	2_0.gif
7.501	1.5	4	0	4	0.442	4	1	4_0.gif
9.001	1.5	2	0	2	0.52	2	1	2_0.gif
10.501	1.5	3	0	3	0.558	3	1	3_0.gif
12.001	1.5	4	0	4	0.616	4	1	4_0.gif
13.501	1.5	2	0	2	0.591	2	1	2_0.gif
15.001	1.5	4	0	4	0.637	4	1	4_0.gif
16.501	1.5	1	0	1	0.814	1	1	1_0.gif
18.001	1.5	4	0	4	0.701	4	1	4_0.gif
19.501	1.5	1	0	1	0.657	1	1	1_0.gif
21.001	1.5	3	0	3	0.678	3	1	3_0.gif
22.501	1.5	2	0	2	0.623	2	1	2_0.gif
24.003	1.5	4	2	6	0	3	n/a	4_2.gif
25.503	1.5	3	2	6	0	2	n/a	3_2.gif
27.003	1.5	2	2	4	0.504	4	1	2_2.gif
28.503	1.5	4	2	3	0.458	3	1	4_2.gif
30.003	1.5	2	2	2	0.476	2	1	2_2.gif
31.503	1.5	4	2	4	1.014	4	1	4_2.gif
33.003	1.5	1	2	6	0	2	n/a	1_2.gif
34.504	1.5	2	2	6	0	4	n/a	2_2.gif
36.004	1.5	3	2	6	0	1	n/a	3_2.gif
37.504	1.5	1	2	2	0.573	2	1	1_2.gif
39.004	1.5	4	2	3	0.581	3	1	4_2.gif
40.504	1.5	3	2	1	0.51	1	1	3_2.gif
42.004	1.5	4	2	4	0.621	4	1	4_2.gif
43.504	1.5	2	2	6	0	3	n/a	2_2.gif
45.004	1.5	3	2	6	0	4	n/a	3_2.gif
46.504	1.5	1	2	6	0	2	n/a	1_2.gif
48.004	1.5	4	0	4	0.997	4	1	4_0.gif
49.504	1.5	2	0	2	0.538	2	1	2_0.gif
51.004	1.5	3	0	3	0.565	3	1	3_0.gif
52.504	1.5	4	0	4	0.643	4	1	4_0.gif
54.004	1.5	2	0	2	0.511	2	1	2_0.gif
55.504	1.5	4	0	4	0.699	4	1	4_0.gif
57.004	1.5	1	0	1	0.551	1	1	1_0.gif
58.504	1.5	4	0	4	0.475	4	1	4_0.gif
60.004	1.5	3	0	3	0.615	3	1	3_0.gif
61.504	1.5	2	0	2	0.589	2	1	2_0.gif
63.004	1.5	4	0	4	0.634	4	1	4_0.gif
64.504	1.5	1	0	1	0.484	1	1	1_0.gif
66.004	1.5	2	0	2	0.692	2	1	2_0.gif
67.504	1.5	4	0	4	0.55	4	1	4_0.gif
69.004	1.5	2	0	2	0.604	2	1	2_0.gif
70.504	1.5	1	0	1	0.486	1	1	1_0.gif
72.007	1.5	4	2	4	0.645	2	0	4_2.gif
73.507	1.5	2	2	1	0.854	1	1	2_2.gif
75.007	1.5	3	2	6	0	4	n/a	3_2.gif
76.507	1.5	2	2	2	0.3	2	1	2_2.gif
78.007	1.5	1	2	3	0.547	3	1	1_2.gif
79.507	1.5	3	2	1	0.693	2	0	3_2.gif
81.007	1.5	1	2	1	1.206	1	1	1_2.gif
82.507	1.5	3	2	6	0	3	n/a	3_2.gif
84.007	1.5	1	2	3	0.55	1	0	1_2.gif
85.507	1.5	3	2	6	0	3	n/a	3_2.gif
87.007	1.5	2	2	3	0.951	1	0	2_2.gif
88.507	1.5	3	2	6	0	3	n/a	3_2.gif
90.007	1.5	2	2	3	0.093	2	0	2_2.gif
91.507	1.5	3	2	2	0.313	3	0	3_2.gif
93.007	1.5	2	2	3	0.323	2	0	2_2.gif
94.507	1.5	4	2	2	1.303	3	0	4_2.gif
96.008	1.5	3	0	3	1.062	3	1	3_0.gif
97.508	1.5	2	0	2	0.406	2	1	2_0.gif
99.008	1.5	4	0	4	1.142	4	1	4_0.gif
100.508	1.5	1	0	1	0.484	1	1	1_0.gif
102.008	1.5	2	0	2	0.988	2	1	2_0.gif
103.508	1.5	3	0	3	0.516	3	1	3_0.gif
105.008	1.5	1	0	1	0.617	1	1	1_0.gif
106.508	1.5	4	0	4	0.488	4	1	4_0.gif
108.008	1.5	1	0	1	0.897	1	1	1_0.gif
109.508	1.5	3	0	3	0.661	3	1	3_0.gif
111.008	1.5	2	0	2	0.423	2	1	2_0.gif
112.508	1.5	4	0	4	0.399	4	1	4_0.gif
114.008	1.5	1	0	1	0.798	1	1	1_0.gif
115.508	1.5	3	0	3	0.577	3	1	3_0.gif
117.008	1.5	1	0	1	0.613	1	1	1_0.gif
118.508	1.5	3	0	3	0.558	3	1	3_0.gif
120.01	1.5	1	2	6	0	1	n/a	1_2.gif
121.51	1.5	3	2	6	0	3	n/a	3_2.gif
123.01	1.5	4	2	1	0.466	1	1	4_2.gif
124.51	1.5	2	2	3	0.368	3	1	2_2.gif
126.01	1.5	4	2	4	0.492	4	1	4_2.gif
127.511	1.5	2	2	2	0.613	2	1	2_2.gif
129.011	1.5	3	2	6	0	4	n/a	3_2.gif
130.511	1.5	1	2	4	1.044	2	0	1_2.gif
132.011	1.5	2	2	6	0	3	n/a	2_2.gif
133.511	1.5	1	2	1	0.997	1	1	1_2.gif
135.011	1.5	4	2	2	0.884	2	1	4_2.gif
136.511	1.5	2	2	6	0	1	n/a	2_2.gif
138.011	1.5	3	2	6	0	4	n/a	3_2.gif
139.511	1.5	2	2	2	1.113	2	1	2_2.gif
141.011	1.5	1	2	6	0	3	n/a	1_2.gif
142.511	1.5	3	2	3	0.281	2	0	3_2.gif
144.012	1.5	4	0	2	0.523	4	0	4_0.gif
145.512	1.5	1	0	1	0.697	1	1	1_0.gif
147.012	1.5	3	0	3	0.572	3	1	3_0.gif
148.513	1.5	4	0	4	0.611	4	1	4_0.gif
150.013	1.5	1	0	1	0.54	1	1	1_0.gif
151.513	1.5	4	0	4	0.638	4	1	4_0.gif
153.013	1.5	2	0	2	0.622	2	1	2_0.gif
154.513	1.5	4	0	4	0.697	4	1	4_0.gif
156.013	1.5	1	0	1	0.749	1	1	1_0.gif
157.513	1.5	2	0	2	0.73	2	1	2_0.gif
159.013	1.5	4	0	4	0.572	4	1	4_0.gif
160.513	1.5	2	0	2	1.023	2	1	2_0.gif
162.013	1.5	4	0	4	0.771	4	1	4_0.gif
163.513	1.5	2	0	2	0.567	2	1	2_0.gif
165.013	1.5	3	0	3	0.758	3	1	3_0.gif
166.513	1.5	1	0	1	0.534	1	1	1_0.gif
168.015	1.5	3	2	6	0	3	n/a	3_2.gif
169.515	1.5	4	2	6	0	1	n/a	4_2.gif
171.015	1.5	2	2	3	0.368	3	1	2_2.gif
172.515	1.5	4	2	4	0.452	4	1	4_2.gif
174.015	1.5	1	2	2	0.468	2	1	1_2.gif
175.515	1.5	4	2	1	0.73	4	0	4_2.gif
177.015	1.5	1	2	1	1.432	1	1	1_2.gif
178.515	1.5	2	2	1	0.015	4	0	2_2.gif
180.015	1.5	1	2	6	0	1	n/a	1_2.gif
181.515	1.5	2	2	6	0	2	n/a	2_2.gif
183.015	1.5	3	2	2	0.18	1	0	3_2.gif
184.515	1.5	1	2	3	0.897	2	0	1_2.gif
186.015	1.5	4	2	6	0	3	n/a	4_2.gif
187.515	1.5	2	2	4	1.228	1	0	2_2.gif
189.015	1.5	1	2	6	0	4	n/a	1_2.gif
190.515	1.5	4	2	2	0.409	2	1	4_2.gif
192.017	1.5	2	0	1	0.622	2	0	2_0.gif
193.517	1.5	1	0	2	0.016	1	0	1_0.gif
195.017	1.5	4	0	4	0.542	4	1	4_0.gif
196.517	1.5	1	0	1	0.563	1	1	1_0.gif
198.017	1.5	3	0	3	0.534	3	1	3_0.gif
199.517	1.5	4	0	4	0.543	4	1	4_0.gif
201.017	1.5	1	0	1	0.563	1	1	1_0.gif
202.517	1.5	4	0	4	0.751	4	1	4_0.gif
204.017	1.5	2	0	2	0.688	2	1	2_0.gif
205.517	1.5	4	0	4	0.693	4	1	4_0.gif
207.017	1.5	3	0	6	0	3	n/a	3_0.gif
208.517	1.5	2	0	3	0.043	2	0	2_0.gif
210.017	1.5	4	0	4	0.704	4	1	4_0.gif
211.517	1.5	2	0	2	0.543	2	1	2_0.gif
213.017	1.5	1	0	1	0.564	1	1	1_0.gif
214.517	1.5	4	0	4	0.376	4	1	4_0.gif
216.018	1.5	1	2	6	0	1	n/a	1_2.gif
217.518	1.5	3	2	6	0	4	n/a	3_2.gif
219.018	1.5	1	2	1	0.542	1	1	1_2.gif
220.518	1.5	2	2	3	0.657	3	1	2_2.gif
222.018	1.5	4	2	2	0.665	1	0	4_2.gif
223.518	1.5	2	2	4	0.755	2	0	2_2.gif
225.021	1.5	3	2	2	1.218	4	0	3_2.gif
226.521	1.5	2	2	3	1.092	2	0	2_2.gif
228.021	1.5	4	2	6	0	3	n/a	4_2.gif
229.521	1.5	1	2	6	0	2	n/a	1_2.gif
231.021	1.5	3	2	2	0.643	4	0	3_2.gif
232.521	1.5	1	2	1	0.735	1	1	1_2.gif
234.021	1.5	3	2	3	0.586	3	1	3_2.gif
235.521	1.5	4	2	6	0	1	n/a	4_2.gif
237.022	1.5	1	2	6	0	3	n/a	1_2.gif
238.522	1.5	4	2	4	0.651	4	1	4_2.gif
240.022	1.5	3	0	1	0.491	3	0	3_0.gif
241.522	1.5	1	0	3	0.017	1	0	1_0.gif
243.022	1.5	2	0	2	0.61	2	1	2_0.gif
244.522	1.5	4	0	4	0.437	4	1	4_0.gif
246.022	1.5	3	0	3	0.302	3	1	3_0.gif
247.522	1.5	2	0	2	0.626	2	1	2_0.gif
249.022	1.5	3	0	3	0.707	3	1	3_0.gif
250.522	1.5	1	0	1	0.598	1	1	1_0.gif
252.022	1.5	2	0	2	0.574	2	1	2_0.gif
253.522	1.5	3	0	3	0.638	3	1	3_0.gif
255.022	1.5	2	0	2	0.825	2	1	2_0.gif
256.522	1.5	1	0	1	0.749	1	1	1_0.gif
258.022	1.5	2	0	2	0.713	2	1	2_0.gif
259.526	1.5	3	0	3	0.458	3	1	3_0.gif
261.026	1.5	1	0	1	0.633	1	1	1_0.gif
262.526	1.5	4	0	4	0.659	4	1	4_0.gif
264.027	1.5	2	2	6	0	1	n/a	2_2.gif
265.527	1.5	1	2	6	0	4	n/a	1_2.gif
267.027	1.5	4	2	2	0.455	2	1	4_2.gif
268.527	1.5	1	2	1	0.493	1	1	1_2.gif
270.027	1.5	3	2	4	0.553	4	1	3_2.gif
271.527	1.5	1	2	6	0	1	n/a	1_2.gif
273.027	1.5	4	2	1	0.199	3	0	4_2.gif
274.527	1.5	1	2	6	0	1	n/a	1_2.gif
276.027	1.5	2	2	4	0.278	4	1	2_2.gif
277.527	1.5	1	2	2	0.847	1	0	1_2.gif
279.027	1.5	3	2	6	0	2	n/a	3_2.gif
280.527	1.5	1	2	6	0	1	n/a	1_2.gif
282.027	1.5	3	2	3	0.611	3	1	3_2.gif
283.527	1.5	2	2	1	0.445	1	1	2_2.gif
285.027	1.5	3	2	6	0	3	n/a	3_2.gif
286.527	1.5	1	2	2	0.02	2	1	1_2.gif
288.029	1.5	3	0	3	1.143	3	1	3_0.gif
289.529	1.5	2	0	2	0.698	2	1	2_0.gif
291.029	1.5	4	0	4	0.713	4	1	4_0.gif
292.529	1.5	2	0	2	0.545	2	1	2_0.gif
294.029	1.5	3	0	3	0.751	3	1	3_0.gif
295.529	1.5	4	0	4	0.657	4	1	4_0.gif
297.029	1.5	2	0	2	0.594	2	1	2_0.gif
298.529	1.5	4	0	4	0.715	4	1	4_0.gif
300.029	1.5	1	0	1	0.677	1	1	1_0.gif
301.529	1.5	4	0	4	0.704	4	1	4_0.gif
303.029	1.5	1	0	1	0.815	1	1	1_0.gif
304.529	1.5	3	0	3	0.611	3	1	3_0.gif
306.029	1.5	2	0	2	0.435	2	1	2_0.gif
307.529	1.5	4	0	4	0.421	4	1	4_0.gif
309.029	1.5	3	0	3	0.678	3	1	3_0.gif
310.529	1.5	2	0	2	0.642	2	1	2_0.gif
312.031	1.5	4	2	6	0	3	n/a	4_2.gif
313.531	1.5	2	2	6	0	2	n/a	2_2.gif
315.031	1.5	4	2	4	0.485	4	1	4_2.gif
316.531	1.5	1	2	2	0.53	2	1	1_2.gif
318.031	1.5	2	2	1	0.703	4	0	2_2.gif
319.531	1.5	3	2	6	0	1	n/a	3_2.gif
321.031	1.5	1	2	3	0.11	2	0	1_2.gif
322.531	1.5	4	2	6	0	3	n/a	4_2.gif
324.031	1.5	3	2	6	0	1	n/a	3_2.gif
325.531	1.5	4	2	4	0.574	4	1	4_2.gif
327.031	1.5	2	2	3	0.64	3	1	2_2.gif
328.531	1.5	3	2	4	0.681	4	1	3_2.gif
330.031	1.5	1	2	2	0.636	2	1	1_2.gif
331.531	1.5	4	2	4	0.993	3	0	4_2.gif
333.031	1.5	2	2	4	0.013	1	0	2_2.gif
334.531	1.5	3	2	4	0.018	4	1	3_2.gif
336.032	1.5	4	0	4	1.065	4	1	4_0.gif
337.532	1.5	2	0	2	0.512	2	1	2_0.gif
339.032	1.5	4	0	4	0.596	4	1	4_0.gif
340.532	1.5	1	0	1	0.569	1	1	1_0.gif
342.032	1.5	4	0	4	0.594	4	1	4_0.gif
343.532	1.5	3	0	3	0.657	3	1	3_0.gif
345.032	1.5	2	0	2	0.516	2	1	2_0.gif
346.532	1.5	4	0	4	0.717	4	1	4_0.gif
348.032	1.5	1	0	1	0.607	1	1	1_0.gif
349.532	1.5	2	0	2	0.545	2	1	2_0.gif
351.032	1.5	4	0	4	0.493	4	1	4_0.gif
352.532	1.5	2	0	2	0.677	2	1	2_0.gif
354.032	1.5	1	0	1	0.401	1	1	1_0.gif
355.532	1.5	4	0	4	0.834	4	1	4_0.gif
357.032	1.5	2	0	2	0.607	2	1	2_0.gif
358.532	1.5	3	0	3	0.678	3	1	3_0.gif
360.034	1.5	2	2	2	0.767	2	1	2_2.gif
361.534	1.5	1	2	6	0	3	n/a	1_2.gif
363.034	1.5	3	2	2	0.427	2	1	3_2.gif
364.534	1.5	1	2	1	0.46	1	1	1_2.gif
366.034	1.5	3	2	3	0.431	3	1	3_2.gif
367.534	1.5	1	2	1	1.041	1	1	1_2.gif
369.034	1.5	3	2	3	0.543	3	1	3_2.gif
370.534	1.5	2	2	1	1.184	1	1	2_2.gif
372.034	1.5	3	2	3	0.862	3	1	3_2.gif
373.534	1.5	2	2	2	1.198	2	1	2_2.gif
375.034	1.5	3	2	3	1.117	3	1	3_2.gif
376.534	1.5	2	2	2	1.098	2	1	2_2.gif
378.034	1.5	4	2	3	1.244	3	1	4_2.gif
379.534	1.5	3	2	2	1.195	2	1	3_2.gif
381.034	1.5	2	2	4	1.14	4	1	2_2.gif
382.534	1.5	4	2	6	0	3	n/a	4_2.gif
