onset	duration	nback_display	trial_type	response	response_time	correct_response	correct	stim_file
0	1	3	0	6	0	3	n/a	3_0.gif
1	1	4	0	3	0.09	4	0	4_0.gif
2	1	1	0	4	0.005	1	0	1_0.gif
3	1	2	0	2	0.379	2	1	2_0.gif
4	1	3	0	3	0.354	3	1	3_0.gif
5	1	4	0	4	0.318	4	1	4_0.gif
6	1	3	0	3	0.416	3	1	3_0.gif
7	1	4	0	4	0.37	4	1	4_0.gif
8	1	1	0	1	0.348	1	1	1_0.gif
9	1	3	0	3	0.452	3	1	3_0.gif
10	1	4	0	4	0.288	4	1	4_0.gif
11	1	1	0	1	0.255	1	1	1_0.gif
12	1	2	0	2	0.407	2	1	2_0.gif
13	1	1	0	1	0.514	1	1	1_0.gif
14	1	2	0	2	0.551	2	1	2_0.gif
15	1	1	0	1	0.411	1	1	1_0.gif
16	1	2	2	6	0	2	n/a	2_2.gif
17	1	4	2	6	0	1	n/a	4_2.gif
18	1	3	2	2	0.321	2	1	3_2.gif
19	1	2	2	4	0.391	4	1	2_2.gif
20	1	3	2	3	0.762	3	1	3_2.gif
21	1	4	2	3	0.007	2	0	4_2.gif
22	1	3	2	4	0.72	3	0	3_2.gif
23	1	1	2	4	0.006	4	1	1_2.gif
24	1	3	2	3	0.143	3	1	3_2.gif
25	1	2	2	1	0.374	1	1	2_2.gif
26	1	1	2	3	0.172	3	1	1_2.gif
27	1	2	2	2	0.007	2	1	2_2.gif
28	1	1	2	1	0.007	1	1	1_2.gif
29	1	4	2	2	0.281	2	1	4_2.gif
30	1	1	2	1	0.21	1	1	1_2.gif
31	1	3	2	4	0.213	4	1	3_2.gif
32	1	4	0	1	0.149	4	0	4_0.gif
33	1	2	0	4	0.306	2	0	2_0.gif
34	1	1	0	2	0.007	1	0	1_0.gif
35	1	2	0	1	0.006	2	0	2_0.gif
36	1	4	0	2	0.006	4	0	4_0.gif
37	1	3	0	3	0.54	3	1	3_0.gif
38	1	4	0	4	0.613	4	1	4_0.gif
39	1	3	0	3	0.553	3	1	3_0.gif
40	1	2	0	3	0.007	2	0	2_0.gif
41	1	3	0	3	0.006	3	1	3_0.gif
42	1	1	0	1	0.458	1	1	1_0.gif
43	1	2	0	2	0.382	2	1	2_0.gif
44	1	1	0	1	0.435	1	1	1_0.gif
45	1	4	0	4	0.337	4	1	4_0.gif
46	1	3	0	3	0.453	3	1	3_0.gif
47	1	1	0	1	0.261	1	1	1_0.gif
48	1	2	2	6	0	3	n/a	2_2.gif
49	1	3	2	6	0	1	n/a	3_2.gif
50	1	4	2	2	0.244	2	1	4_2.gif
51	1	3	2	3	0.342	3	1	3_2.gif
52	1	4	2	4	0.287	4	1	4_2.gif
53	1	1	2	3	0.313	3	1	1_2.gif
54	1	3	2	4	0.243	4	1	3_2.gif
55	1	4	2	3	0.477	1	0	4_2.gif
56	1	3	2	1	0.106	3	0	3_2.gif
57	1	2	2	3	0.007	4	0	2_2.gif
58	1	4	2	3	0.44	3	1	4_2.gif
59	1	2	2	2	0.201	2	1	2_2.gif
60	1	1	2	1	0.386	4	0	1_2.gif
61	1	2	2	2	0.416	2	1	2_2.gif
62	1	4	2	4	0.936	1	0	4_2.gif
63	1	3	2	4	0.007	2	0	3_2.gif
64	1	1	0	1	0.806	1	1	1_0.gif
65	1	3	0	1	0.007	3	0	3_0.gif
66	1	4	0	4	0.549	4	1	4_0.gif
67	1	3	0	3	0.649	3	1	3_0.gif
68	1	1	0	1	0.579	1	1	1_0.gif
69	1	4	0	4	0.488	4	1	4_0.gif
70	1	2	0	2	0.686	2	1	2_0.gif
71	1	4	0	4	0.933	4	1	4_0.gif
72	1	2	0	4	0.007	2	0	2_0.gif
73	1	1	0	2	0.006	1	0	1_0.gif
74	1	2	0	2	0.508	2	1	2_0.gif
75	1	4	0	4	0.524	4	1	4_0.gif
76	1	2	0	2	0.458	2	1	2_0.gif
77	1	1	0	1	0.369	1	1	1_0.gif
78	1	2	0	2	0.365	2	1	2_0.gif
79	1	3	0	3	0.528	3	1	3_0.gif
80.001	1	2	2	6	0	2	n/a	2_2.gif
81.001	1	1	2	6	0	3	n/a	1_2.gif
82.001	1	4	2	2	0.168	2	1	4_2.gif
83.001	1	2	2	1	0.168	1	1	2_2.gif
84.001	1	4	2	4	0.09	4	1	4_2.gif
85.001	1	2	2	2	0.074	2	1	2_2.gif
86.001	1	4	2	4	0.143	4	1	4_2.gif
87.001	1	1	2	2	0.246	2	1	1_2.gif
88.001	1	3	2	4	0.344	4	1	3_2.gif
89.001	1	1	2	1	0.006	1	1	1_2.gif
90.001	1	3	2	3	0.006	3	1	3_2.gif
91.001	1	4	2	1	0.138	1	1	4_2.gif
92.001	1	2	2	3	0.005	3	1	2_2.gif
93.001	1	3	2	2	0.742	4	0	3_2.gif
94.001	1	1	2	2	0.006	2	1	1_2.gif
95.001	1	2	2	3	0.045	3	1	2_2.gif
96.001	1	4	0	2	0.006	4	0	4_0.gif
97.001	1	3	0	4	0.085	3	0	3_0.gif
98.001	1	2	0	3	0.006	2	0	2_0.gif
99.001	1	4	0	2	0.136	4	0	4_0.gif
100.001	1	1	0	4	0.007	1	0	1_0.gif
101.001	1	2	0	1	0.006	2	0	2_0.gif
102.001	1	4	0	2	0.006	4	0	4_0.gif
103.001	1	1	0	4	0.007	1	0	1_0.gif
104.001	1	2	0	1	0.006	2	0	2_0.gif
105.001	1	1	0	2	0.006	1	0	1_0.gif
106.001	1	4	0	1	0.007	4	0	4_0.gif
107.001	1	1	0	4	0.006	1	0	1_0.gif
108.001	1	3	0	1	0.006	3	0	3_0.gif
109.001	1	1	0	3	0.007	1	0	1_0.gif
110.001	1	2	0	2	0.57	2	1	2_0.gif
111.001	1	3	0	3	0.597	3	1	3_0.gif
112.001	1	1	2	6	0	2	n/a	1_2.gif
113.001	1	3	2	6	0	3	n/a	3_2.gif
114.001	1	1	2	1	0.149	1	1	1_2.gif
115.001	1	3	2	3	0.007	3	1	3_2.gif
116.001	1	4	2	1	0.172	1	1	4_2.gif
117.001	1	2	2	3	0.006	3	1	2_2.gif
118.001	1	4	2	2	0.785	4	0	4_2.gif
119.001	1	1	2	2	0.007	2	1	1_2.gif
120.001	1	4	2	4	0.007	4	1	4_2.gif
121.001	1	1	2	4	0.793	1	0	1_2.gif
122.001	1	2	2	4	0.007	4	1	2_2.gif
123.001	1	1	2	2	0.751	1	0	1_2.gif
124.001	1	2	2	1	0.602	2	0	2_2.gif
125.001	1	4	2	2	0.766	1	0	4_2.gif
126.001	1	3	2	2	0.007	2	1	3_2.gif
127.001	1	2	2	3	0.63	4	0	2_2.gif
128.001	1	1	0	1	0.931	1	1	1_0.gif
129.001	1	2	0	1	0.007	2	0	2_0.gif
130.001	1	3	0	2	0.006	3	0	3_0.gif
131.001	1	2	0	3	0.006	2	0	2_0.gif
132.001	1	3	0	2	0.007	3	0	3_0.gif
133.001	1	4	0	3	0.006	4	0	4_0.gif
134.001	1	3	0	4	0.006	3	0	3_0.gif
135.001	1	1	0	1	0.764	1	1	1_0.gif
136.001	1	3	0	1	0.007	3	0	3_0.gif
137.001	1	1	0	3	0.006	1	0	1_0.gif
138.001	1	3	0	1	0.006	3	0	3_0.gif
139.001	1	1	0	3	0.007	1	0	1_0.gif
140.001	1	3	0	1	0.006	3	0	3_0.gif
141.001	1	1	0	3	0.006	1	0	1_0.gif
142.001	1	3	0	1	0.007	3	0	3_0.gif
143.001	1	1	0	3	0.006	1	0	1_0.gif
144.001	1	4	2	1	0.006	3	0	4_2.gif
145.001	1	3	2	6	0	1	n/a	3_2.gif
146.001	1	1	2	4	0.128	4	1	1_2.gif
147.001	1	3	2	3	0.192	3	1	3_2.gif
148.001	1	4	2	3	0.64	1	0	4_2.gif
149.001	1	2	2	1	0.149	3	0	2_2.gif
150.001	1	1	2	4	0.106	4	1	1_2.gif
151.001	1	2	2	2	0.015	2	1	2_2.gif
152.001	1	3	2	1	0.013	1	1	3_2.gif
153.001	1	1	2	2	0.006	2	1	1_2.gif
154.001	1	3	2	3	0.007	3	1	3_2.gif
155.001	1	4	2	3	0.736	1	0	4_2.gif
156.001	1	2	2	4	0.878	3	0	2_2.gif
157.001	1	3	2	4	0.007	4	1	3_2.gif
158.001	1	4	2	2	0.468	2	1	4_2.gif
159.001	1	2	2	3	0.232	3	1	2_2.gif
160.002	1	4	0	4	0.182	4	1	4_0.gif
161.002	1	2	0	2	0.397	2	1	2_0.gif
162.002	1	4	0	4	0.418	4	1	4_0.gif
163.002	1	1	0	1	0.357	1	1	1_0.gif
164.002	1	2	0	2	0.433	2	1	2_0.gif
165.002	1	1	0	1	0.376	1	1	1_0.gif
166.002	1	3	0	3	0.289	3	1	3_0.gif
167.002	1	4	0	4	0.332	4	1	4_0.gif
168.002	1	2	0	2	0.409	2	1	2_0.gif
169.002	1	3	0	3	0.39	3	1	3_0.gif
170.002	1	4	0	4	0.417	4	1	4_0.gif
171.002	1	3	0	3	0.463	3	1	3_0.gif
172.002	1	4	0	4	0.317	4	1	4_0.gif
173.002	1	2	0	2	0.455	2	1	2_0.gif
174.002	1	3	0	3	0.452	3	1	3_0.gif
175.002	1	1	0	1	0.453	1	1	1_0.gif
176.002	1	2	2	6	0	3	n/a	2_2.gif
177.002	1	1	2	6	0	1	n/a	1_2.gif
178.002	1	3	2	2	0.243	2	1	3_2.gif
179.002	1	4	2	1	0.264	1	1	4_2.gif
180.002	1	3	2	3	0.295	3	1	3_2.gif
181.002	1	4	2	4	0.587	4	1	4_2.gif
182.002	1	3	2	6	0	3	n/a	3_2.gif
183.002	1	2	2	3	0.797	4	0	2_2.gif
184.002	1	4	2	3	0.007	3	1	4_2.gif
185.002	1	2	2	2	0.384	2	1	2_2.gif
186.002	1	1	2	6	0	4	n/a	1_2.gif
187.002	1	2	2	1	0.554	2	0	2_2.gif
188.002	1	4	2	2	0.35	1	0	4_2.gif
189.002	1	2	2	4	0.522	2	0	2_2.gif
190.002	1	1	2	6	0	4	n/a	1_2.gif
191.002	1	2	2	2	0.042	2	1	2_2.gif
192.002	1	3	0	3	0.671	3	1	3_0.gif
193.002	1	2	0	2	0.629	2	1	2_0.gif
194.002	1	4	0	4	0.62	4	1	4_0.gif
195.002	1	2	0	2	0.795	2	1	2_0.gif
196.002	1	4	0	2	0.007	4	0	4_0.gif
197.002	1	3	0	4	0.006	3	0	3_0.gif
198.002	1	4	0	3	0.006	4	0	4_0.gif
199.002	1	1	0	1	0.641	1	1	1_0.gif
200.002	1	2	0	2	0.724	2	1	2_0.gif
201.002	1	3	0	2	0.007	3	0	3_0.gif
202.002	1	4	0	3	0.007	4	0	4_0.gif
203.002	1	3	0	3	0.631	3	1	3_0.gif
204.002	1	4	0	4	0.619	4	1	4_0.gif
205.002	1	1	0	1	0.601	1	1	1_0.gif
206.002	1	3	0	3	0.605	3	1	3_0.gif
207.002	1	4	0	4	0.614	4	1	4_0.gif
208.002	1	1	2	6	0	3	n/a	1_2.gif
209.002	1	2	2	6	0	4	n/a	2_2.gif
210.002	1	1	2	1	0.317	1	1	1_2.gif
211.002	1	2	2	2	0.222	2	1	2_2.gif
212.002	1	1	2	1	0.209	1	1	1_2.gif
213.002	1	2	2	2	0.234	2	1	2_2.gif
214.002	1	4	2	1	0.41	1	1	4_2.gif
215.002	1	3	2	2	0.142	2	1	3_2.gif
216.002	1	2	2	4	0.007	4	1	2_2.gif
217.002	1	3	2	3	0.007	3	1	3_2.gif
218.002	1	4	2	3	0.006	2	0	4_2.gif
219.002	1	3	2	2	0.007	3	0	3_2.gif
220.002	1	1	2	3	0.697	4	0	1_2.gif
221.002	1	3	2	3	0.007	3	1	3_2.gif
222.002	1	2	2	3	0.099	1	0	2_2.gif
223.002	1	1	2	1	0.007	3	0	1_2.gif
224.002	1	2	0	3	0.006	2	0	2_0.gif
225.002	1	1	0	1	0.533	1	1	1_0.gif
226.002	1	4	0	4	0.489	4	1	4_0.gif
227.002	1	1	0	1	0.554	1	1	1_0.gif
228.002	1	3	0	3	0.569	3	1	3_0.gif
229.002	1	4	0	4	0.506	4	1	4_0.gif
230.002	1	2	0	2	0.709	2	1	2_0.gif
231.002	1	1	0	2	0.007	1	0	1_0.gif
232.002	1	2	0	1	0.007	2	0	2_0.gif
233.002	1	4	0	4	0.583	4	1	4_0.gif
234.002	1	3	0	3	0.647	3	1	3_0.gif
235.002	1	4	0	3	0.007	4	0	4_0.gif
236.002	1	3	0	4	0.006	3	0	3_0.gif
237.002	1	2	0	3	0.006	2	0	2_0.gif
238.002	1	3	0	3	0.609	3	1	3_0.gif
239.002	1	1	0	1	0.594	1	1	1_0.gif
240.003	1	2	2	6	0	3	n/a	2_2.gif
241.003	1	1	2	6	0	1	n/a	1_2.gif
242.003	1	4	2	2	0.327	2	1	4_2.gif
243.003	1	3	2	1	0.172	1	1	3_2.gif
244.003	1	1	2	4	0.398	4	1	1_2.gif
245.003	1	2	2	3	0.327	3	1	2_2.gif
246.003	1	3	2	1	0.244	1	1	3_2.gif
247.004	1	4	2	2	0.501	2	1	4_2.gif
248.004	1	3	2	3	0.28	3	1	3_2.gif
249.004	1	4	2	4	0.515	4	1	4_2.gif
250.004	1	1	2	6	0	3	n/a	1_2.gif
251.004	1	3	2	6	0	4	n/a	3_2.gif
252.004	1	4	2	1	0.007	1	1	4_2.gif
253.004	1	3	2	3	0.007	3	1	3_2.gif
254.004	1	2	2	4	0.496	4	1	2_2.gif
255.004	1	4	2	3	0.422	3	1	4_2.gif
