onset	duration	nback_display	trial_type	response	response_time	correct_response	correct	stim_file
0	1	3	0	3	0.69	3	1	3_0.gif
1	1	2	0	2	0.393	2	1	2_0.gif
2	1	1	0	1	0.348	1	1	1_0.gif
3	1	3	0	3	0.342	3	1	3_0.gif
4	1	2	0	2	0.28	2	1	2_0.gif
5	1	1	0	1	0.401	1	1	1_0.gif
6	1	2	0	2	0.401	2	1	2_0.gif
7	1	1	0	1	0.409	1	1	1_0.gif
8	1	4	0	4	0.32	4	1	4_0.gif
9	1	2	0	2	0.405	2	1	2_0.gif
10	1	4	0	4	0.403	4	1	4_0.gif
11	1	1	0	1	0.374	1	1	1_0.gif
12	1	2	0	2	0.32	2	1	2_0.gif
13	1	4	0	4	0.273	4	1	4_0.gif
14	1	2	0	2	0.321	2	1	2_0.gif
15	1	1	0	1	0.475	1	1	1_0.gif
16	1	4	2	4	0.444	2	0	4_2.gif
17	1	2	2	6	0	1	n/a	2_2.gif
18	1	1	2	4	0.23	4	1	1_2.gif
19	1	3	2	2	0.177	2	1	3_2.gif
20	1	4	2	1	0.151	1	1	4_2.gif
21	1	2	2	3	0.099	3	1	2_2.gif
22	1	4	2	4	0.108	4	1	4_2.gif
23	1	3	2	2	0.845	2	1	3_2.gif
24	1	1	2	2	0.007	4	0	1_2.gif
25	1	2	2	3	0.12	3	1	2_2.gif
26	1	4	2	1	0.231	1	1	4_2.gif
27	1	2	2	2	0.155	2	1	2_2.gif
28	1	1	2	4	0.115	4	1	1_2.gif
29	1	4	2	2	0.1	2	1	4_2.gif
30	1	1	2	1	0.153	1	1	1_2.gif
31	1	2	2	4	0.162	4	1	2_2.gif
32	1	4	0	1	0.167	4	0	4_0.gif
33	1	1	0	4	0.145	1	0	1_0.gif
34	1	4	0	4	0.47	4	1	4_0.gif
35	1	2	0	2	0.271	2	1	2_0.gif
36.001	1	3	0	3	0.295	3	1	3_0.gif
37.001	1	4	0	4	0.32	4	1	4_0.gif
38.001	1	2	0	2	0.234	2	1	2_0.gif
39.001	1	4	0	4	0.311	4	1	4_0.gif
40.001	1	1	0	1	0.414	1	1	1_0.gif
41.001	1	2	0	2	0.274	2	1	2_0.gif
42.001	1	3	0	3	0.36	3	1	3_0.gif
43.001	1	1	0	1	0.445	1	1	1_0.gif
44.001	1	2	0	2	0.287	2	1	2_0.gif
45.001	1	1	0	1	0.396	1	1	1_0.gif
46.001	1	4	0	4	0.265	4	1	4_0.gif
47.001	1	3	0	3	0.289	3	1	3_0.gif
48.001	1	4	2	4	0.372	4	1	4_2.gif
49.001	1	2	2	6	0	3	n/a	2_2.gif
50.001	1	3	2	4	0.039	4	1	3_2.gif
51.001	1	4	2	2	0.007	2	1	4_2.gif
52.001	1	1	2	3	0.036	3	1	1_2.gif
53.001	1	2	2	4	0.077	4	1	2_2.gif
54.001	1	3	2	1	0.075	1	1	3_2.gif
55.001	1	2	2	2	0.076	2	1	2_2.gif
56.001	1	1	2	3	0.115	3	1	1_2.gif
57.001	1	3	2	2	0.038	2	1	3_2.gif
58.001	1	1	2	1	0.062	1	1	1_2.gif
59.001	1	2	2	3	0.064	3	1	2_2.gif
60.001	1	3	2	1	0.03	1	1	3_2.gif
61.001	1	2	2	2	0.007	2	1	2_2.gif
62.001	1	1	2	3	0.006	3	1	1_2.gif
63.001	1	2	2	2	0.01	2	1	2_2.gif
64.001	1	3	0	1	0.107	3	0	3_0.gif
65.001	1	2	0	2	0.241	2	1	2_0.gif
66.001	1	4	0	4	0.34	4	1	4_0.gif
67.001	1	1	0	1	0.365	1	1	1_0.gif
68.001	1	3	0	3	0.285	3	1	3_0.gif
69.001	1	2	0	2	0.199	2	1	2_0.gif
70.001	1	1	0	1	0.296	1	1	1_0.gif
71.001	1	4	0	4	0.318	4	1	4_0.gif
72.001	1	1	0	1	0.324	1	1	1_0.gif
73.001	1	3	0	3	0.339	3	1	3_0.gif
74.001	1	2	0	2	0.246	2	1	2_0.gif
75.001	1	1	0	1	0.34	1	1	1_0.gif
76.001	1	3	0	3	0.282	3	1	3_0.gif
77.001	1	1	0	1	0.325	1	1	1_0.gif
78.003	1	4	0	4	0.263	4	1	4_0.gif
79.003	1	1	0	1	0.344	1	1	1_0.gif
80.003	1	4	2	6	0	4	n/a	4_2.gif
81.003	1	3	2	4	0.913	1	0	3_2.gif
82.003	1	1	2	4	0.006	4	1	1_2.gif
83.003	1	2	2	3	0.114	3	1	2_2.gif
84.003	1	3	2	1	0.187	1	1	3_2.gif
85.003	1	4	2	2	0.007	2	1	4_2.gif
86.003	1	2	2	3	0.007	3	1	2_2.gif
87.003	1	3	2	4	0.01	4	1	3_2.gif
88.003	1	1	2	2	0.007	2	1	1_2.gif
89.003	1	2	2	3	0.042	3	1	2_2.gif
90.003	1	3	2	1	0.076	1	1	3_2.gif
91.003	1	1	2	2	0.103	2	1	1_2.gif
92.003	1	4	2	3	0.056	3	1	4_2.gif
93.003	1	2	2	1	0.052	1	1	2_2.gif
94.003	1	1	2	4	0.075	4	1	1_2.gif
95.003	1	2	2	2	0.101	2	1	2_2.gif
96.003	1	1	0	1	0.176	1	1	1_0.gif
97.003	1	3	0	3	0.353	3	1	3_0.gif
98.003	1	1	0	1	0.384	1	1	1_0.gif
99.005	1	2	0	2	0.303	2	1	2_0.gif
100.005	1	1	0	1	0.33	1	1	1_0.gif
101.005	1	4	0	4	0.335	4	1	4_0.gif
102.005	1	2	0	2	0.266	2	1	2_0.gif
103.005	1	4	0	4	0.337	4	1	4_0.gif
104.005	1	2	0	2	0.312	2	1	2_0.gif
105.005	1	1	0	1	0.348	1	1	1_0.gif
106.005	1	4	0	4	0.352	4	1	4_0.gif
107.005	1	2	0	2	0.254	2	1	2_0.gif
108.005	1	1	0	1	0.319	1	1	1_0.gif
109.005	1	4	0	4	0.281	4	1	4_0.gif
110.005	1	2	0	2	0.238	2	1	2_0.gif
111.005	1	3	0	3	0.295	3	1	3_0.gif
112.005	1	4	2	4	0.321	2	0	4_2.gif
113.005	1	1	2	6	0	3	n/a	1_2.gif
114.005	1	2	2	4	0.185	4	1	2_2.gif
115.005	1	1	2	1	0.149	1	1	1_2.gif
116.005	1	4	2	2	0.156	2	1	4_2.gif
117.005	1	2	2	1	0.185	1	1	2_2.gif
118.005	1	1	2	4	0.124	4	1	1_2.gif
119.005	1	3	2	2	0.14	2	1	3_2.gif
120.005	1	1	2	1	0.13	1	1	1_2.gif
121.005	1	3	2	3	0.152	3	1	3_2.gif
122.005	1	4	2	1	0.213	1	1	4_2.gif
123.005	1	1	2	3	0.246	3	1	1_2.gif
124.005	1	4	2	4	0.244	4	1	4_2.gif
125.005	1	1	2	1	0.254	1	1	1_2.gif
126.005	1	2	2	4	0.3	4	1	2_2.gif
127.005	1	4	2	1	0.32	1	1	4_2.gif
128.005	1	3	0	2	0.405	3	0	3_0.gif
129.005	1	1	0	1	0.696	1	1	1_0.gif
130.005	1	4	0	4	0.385	4	1	4_0.gif
131.005	1	2	0	2	0.265	2	1	2_0.gif
132.005	1	4	0	4	0.317	4	1	4_0.gif
133.005	1	3	0	3	0.365	3	1	3_0.gif
134.005	1	2	0	2	0.274	2	1	2_0.gif
135.005	1	1	0	1	0.297	1	1	1_0.gif
136.005	1	4	0	4	0.286	4	1	4_0.gif
137.005	1	2	0	2	0.337	2	1	2_0.gif
138.005	1	1	0	1	0.388	1	1	1_0.gif
139.005	1	4	0	4	0.308	4	1	4_0.gif
140.005	1	1	0	1	0.38	1	1	1_0.gif
141.005	1	2	0	2	0.293	2	1	2_0.gif
142.005	1	1	0	1	0.371	1	1	1_0.gif
143.005	1	3	0	3	0.344	3	1	3_0.gif
144.006	1	4	2	6	0	1	n/a	4_2.gif
145.006	1	2	2	6	0	3	n/a	2_2.gif
146.006	1	3	2	4	0.033	4	1	3_2.gif
147.006	1	4	2	2	0.006	2	1	4_2.gif
148.006	1	2	2	3	0.018	3	1	2_2.gif
149.006	1	3	2	4	0.006	4	1	3_2.gif
150.006	1	2	2	2	0.006	2	1	2_2.gif
151.006	1	3	2	3	0.006	3	1	3_2.gif
152.006	1	1	2	2	0.119	2	1	1_2.gif
153.006	1	2	2	3	0.161	3	1	2_2.gif
154.006	1	1	2	6	0	1	n/a	1_2.gif
155.006	1	3	2	6	0	2	n/a	3_2.gif
156.006	1	1	2	1	0.293	1	1	1_2.gif
157.006	1	3	2	3	0.223	3	1	3_2.gif
158.006	1	2	2	2	0.32	1	0	2_2.gif
159.006	1	3	2	6	0	3	n/a	3_2.gif
160.006	1	2	0	2	0.677	2	1	2_0.gif
161.006	1	4	0	4	0.449	4	1	4_0.gif
162.006	1	1	0	1	0.411	1	1	1_0.gif
163.006	1	3	0	3	0.38	3	1	3_0.gif
164.006	1	1	0	1	0.375	1	1	1_0.gif
165.006	1	2	0	2	0.283	2	1	2_0.gif
166.006	1	1	0	1	0.325	1	1	1_0.gif
167.006	1	2	0	2	0.289	2	1	2_0.gif
168.006	1	4	0	4	0.341	4	1	4_0.gif
169.006	1	1	0	1	0.364	1	1	1_0.gif
170.006	1	4	0	4	0.347	4	1	4_0.gif
171.006	1	2	0	2	0.298	2	1	2_0.gif
172.006	1	3	0	3	0.334	3	1	3_0.gif
173.006	1	2	0	2	0.271	2	1	2_0.gif
174.006	1	3	0	3	0.434	3	1	3_0.gif
175.006	1	4	0	4	0.337	4	1	4_0.gif
176.007	1	1	2	6	0	3	n/a	1_2.gif
177.007	1	3	2	6	0	4	n/a	3_2.gif
178.007	1	1	2	1	0.199	1	1	1_2.gif
179.007	1	4	2	3	0.166	3	1	4_2.gif
180.007	1	1	2	1	0.201	1	1	1_2.gif
181.007	1	2	2	4	0.172	4	1	2_2.gif
182.007	1	1	2	1	0.153	1	1	1_2.gif
183.007	1	3	2	2	0.11	2	1	3_2.gif
184.007	1	2	2	1	0.188	1	1	2_2.gif
185.007	1	4	2	3	0.006	3	1	4_2.gif
186.007	1	3	2	2	0.005	2	1	3_2.gif
187.007	1	2	2	3	0.005	4	0	2_2.gif
188.007	1	1	2	6	0	3	n/a	1_2.gif
189.007	1	3	2	2	0.184	2	1	3_2.gif
190.007	1	2	2	1	0.006	1	1	2_2.gif
191.007	1	1	2	3	0.005	3	1	1_2.gif
192.007	1	2	0	2	0.005	2	1	2_0.gif
193.007	1	1	0	1	0.316	1	1	1_0.gif
194.007	1	4	0	4	0.279	4	1	4_0.gif
195.007	1	2	0	2	0.241	2	1	2_0.gif
196.007	1	4	0	4	0.335	4	1	4_0.gif
197.007	1	1	0	1	0.332	1	1	1_0.gif
198.007	1	2	0	2	0.254	2	1	2_0.gif
199.007	1	4	0	4	0.292	4	1	4_0.gif
200.007	1	2	0	2	0.273	2	1	2_0.gif
201.007	1	1	0	1	0.301	1	1	1_0.gif
202.007	1	4	0	4	0.303	4	1	4_0.gif
203.007	1	2	0	2	0.248	2	1	2_0.gif
204.007	1	1	0	1	0.355	1	1	1_0.gif
205.007	1	3	0	3	0.367	3	1	3_0.gif
206.007	1	4	0	4	0.335	4	1	4_0.gif
207.007	1	2	0	2	0.247	2	1	2_0.gif
208.007	1	4	2	6	0	4	n/a	4_2.gif
209.007	1	3	2	4	0.947	2	0	3_2.gif
210.007	1	1	2	4	0.007	4	1	1_2.gif
211.007	1	2	2	3	0.007	3	1	2_2.gif
212.007	1	4	2	1	0.098	1	1	4_2.gif
213.007	1	2	2	2	0.007	2	1	2_2.gif
214.007	1	1	2	4	0.208	4	1	1_2.gif
215.007	1	4	2	2	0.069	2	1	4_2.gif
216.007	1	1	2	4	0.096	1	0	1_2.gif
217.007	1	2	2	1	0.045	4	0	2_2.gif
218.007	1	4	2	1	0.334	1	1	4_2.gif
219.007	1	1	2	6	0	2	n/a	1_2.gif
220.007	1	4	2	6	0	4	n/a	4_2.gif
221.007	1	2	2	1	0.24	1	1	2_2.gif
222.007	1	3	2	4	0.027	4	1	3_2.gif
223.007	1	4	2	2	0.007	2	1	4_2.gif
224.008	1	2	0	3	0.027	2	0	2_0.gif
225.008	1	4	0	4	0.476	4	1	4_0.gif
226.008	1	1	0	1	0.359	1	1	1_0.gif
227.008	1	2	0	2	0.22	2	1	2_0.gif
228.008	1	3	0	3	0.36	3	1	3_0.gif
229.008	1	1	0	1	0.343	1	1	1_0.gif
230.008	1	2	0	2	0.272	2	1	2_0.gif
231.008	1	1	0	1	0.351	1	1	1_0.gif
232.008	1	4	0	4	0.329	4	1	4_0.gif
233.008	1	3	0	3	0.386	3	1	3_0.gif
234.008	1	4	0	4	0.486	4	1	4_0.gif
235.008	1	2	0	2	0.318	2	1	2_0.gif
236.008	1	3	0	3	0.315	3	1	3_0.gif
237.008	1	4	0	4	0.288	4	1	4_0.gif
238.008	1	1	0	2	0.198	1	0	1_0.gif
239.008	1	2	0	2	0.368	2	1	2_0.gif
240.008	1	3	2	6	0	1	n/a	3_2.gif
241.008	1	2	2	6	0	2	n/a	2_2.gif
242.008	1	1	2	3	0.054	3	1	1_2.gif
243.008	1	3	2	2	0.011	2	1	3_2.gif
244.008	1	1	2	1	0.149	1	1	1_2.gif
245.008	1	2	2	3	0.212	3	1	2_2.gif
246.008	1	3	2	1	0.196	1	1	3_2.gif
247.008	1	2	2	2	0.14	2	1	2_2.gif
248.008	1	1	2	3	0.176	3	1	1_2.gif
249.008	1	2	2	2	0.104	2	1	2_2.gif
250.008	1	3	2	1	0.096	1	1	3_2.gif
251.008	1	2	2	2	0.007	2	1	2_2.gif
252.008	1	4	2	3	0.006	3	1	4_2.gif
253.008	1	1	2	2	0.006	2	1	1_2.gif
254.008	1	3	2	4	0.03	4	1	3_2.gif
255.008	1	2	2	1	0.007	1	1	2_2.gif
