onset	duration	nback_display	trial_type	response	response_time	correct_response	correct	stim_file
0	1	3	0	3	0.682	3	1	3_0.gif
1	1	2	0	2	0.369	2	1	2_0.gif
2	1	1	0	1	0.316	1	1	1_0.gif
3	1	3	0	3	0.36	3	1	3_0.gif
4	1	2	0	2	0.351	2	1	2_0.gif
5	1	4	0	4	0.478	4	1	4_0.gif
6	1	3	0	3	0.335	3	1	3_0.gif
7	1	2	0	2	0.331	2	1	2_0.gif
8	1	3	0	3	0.32	3	1	3_0.gif
9	1	2	0	2	0.34	2	1	2_0.gif
10	1	4	0	4	0.417	4	1	4_0.gif
11	1	1	0	1	0.403	1	1	1_0.gif
12	1	2	0	2	0.308	2	1	2_0.gif
13	1	4	0	4	0.482	4	1	4_0.gif
14	1	2	0	2	0.374	2	1	2_0.gif
15	1	1	0	1	0.345	1	1	1_0.gif
16	1	2	2	n/a	n/a	n/a	n/a	2_2.gif
17	1	4	2	n/a	n/a	n/a	n/a	4_2.gif
18	1	1	2	2	0.205	2	1	1_2.gif
19	1	3	2	4	0.179	4	1	3_2.gif
20	1	2	2	1	0.171	1	1	2_2.gif
21	1	3	2	3	0.158	3	1	3_2.gif
22	1	4	2	2	0.088	2	1	4_2.gif
23	1	1	2	3	0.092	3	1	1_2.gif
24	1	4	2	4	0.156	4	1	4_2.gif
25	1	2	2	1	0.096	1	1	2_2.gif
26	1	1	2	4	0.141	4	1	1_2.gif
27	1	2	2	2	0.264	2	1	2_2.gif
28	1	1	2	1	0.202	1	1	1_2.gif
29	1	4	2	2	0.205	2	1	4_2.gif
30	1	1	2	1	0.207	1	1	1_2.gif
31	1	2	2	4	0.197	4	1	2_2.gif
32.001	1	4	0	1	0.16	4	0	4_0.gif
33.001	1	1	0	1	0.465	1	1	1_0.gif
34.001	1	2	0	2	0.249	2	1	2_0.gif
35.001	1	3	0	3	0.344	3	1	3_0.gif
36.001	1	1	0	1	0.445	1	1	1_0.gif
37.001	1	3	0	3	0.399	3	1	3_0.gif
38.001	1	2	0	2	0.266	2	1	2_0.gif
39.001	1	4	0	4	0.258	4	1	4_0.gif
40.001	1	2	0	2	0.264	2	1	2_0.gif
41.001	1	4	0	4	0.447	4	1	4_0.gif
42.001	1	3	0	3	0.436	3	1	3_0.gif
43.001	1	2	0	2	0.32	2	1	2_0.gif
44.001	1	3	0	3	0.328	3	1	3_0.gif
45.001	1	4	0	4	0.508	4	1	4_0.gif
46.001	1	3	0	3	0.382	3	1	3_0.gif
47.001	1	2	0	2	0.336	2	1	2_0.gif
48.002	1	4	2	n/a	n/a	n/a	n/a	4_2.gif
49.002	1	2	2	n/a	n/a	n/a	n/a	2_2.gif
50.002	1	3	2	4	0.279	4	1	3_2.gif
51.002	1	2	2	2	0.189	2	1	2_2.gif
52.002	1	1	2	3	0.232	3	1	1_2.gif
53.002	1	3	2	2	0.217	2	1	3_2.gif
54.002	1	1	2	1	0.208	1	1	1_2.gif
55.002	1	3	2	3	0.16	3	1	3_2.gif
56.002	1	2	2	1	0.154	1	1	2_2.gif
57.002	1	3	2	3	0.079	3	1	3_2.gif
58.002	1	2	2	2	0.155	2	1	2_2.gif
59.002	1	3	2	3	0.199	3	1	3_2.gif
60.002	1	2	2	2	0.227	2	1	2_2.gif
61.002	1	3	2	3	0.234	3	1	3_2.gif
62.002	1	1	2	2	0.293	2	1	1_2.gif
63.002	1	4	2	3	0.27	3	1	4_2.gif
64.002	1	2	0	1	0.171	2	0	2_0.gif
65.002	1	3	0	3	0.342	3	1	3_0.gif
66.002	1	1	0	1	0.413	1	1	1_0.gif
67.002	1	3	0	3	0.345	3	1	3_0.gif
68.002	1	1	0	1	0.399	1	1	1_0.gif
69.002	1	3	0	3	0.29	3	1	3_0.gif
70.002	1	4	0	4	0.423	4	1	4_0.gif
71.002	1	1	0	1	0.408	1	1	1_0.gif
72.002	1	4	0	4	0.431	4	1	4_0.gif
73.002	1	1	0	1	0.38	1	1	1_0.gif
74.002	1	3	0	3	0.429	3	1	3_0.gif
75.002	1	4	0	4	0.376	4	1	4_0.gif
76.002	1	1	0	1	0.341	1	1	1_0.gif
77.002	1	3	0	3	0.305	3	1	3_0.gif
78.002	1	1	0	1	0.368	1	1	1_0.gif
79.002	1	2	0	2	0.328	2	1	2_0.gif
80.003	1	1	2	n/a	n/a	n/a	n/a	1_2.gif
81.003	1	4	2	n/a	n/a	n/a	n/a	4_2.gif
82.003	1	2	2	1	0.111	1	1	2_2.gif
83.003	1	4	2	4	0.057	4	1	4_2.gif
84.003	1	1	2	2	0.091	2	1	1_2.gif
85.003	1	2	2	4	0.167	4	1	2_2.gif
86.003	1	3	2	1	0.202	1	1	3_2.gif
87.003	1	4	2	2	0.199	2	1	4_2.gif
88.003	1	2	2	3	0.201	3	1	2_2.gif
89.003	1	3	2	4	0.226	4	1	3_2.gif
90.003	1	1	2	2	0.22	2	1	1_2.gif
91.003	1	4	2	3	0.21	3	1	4_2.gif
92.003	1	1	2	1	0.181	1	1	1_2.gif
93.003	1	4	2	4	0.225	4	1	4_2.gif
94.003	1	2	2	1	0.291	1	1	2_2.gif
95.003	1	3	2	4	0.253	4	1	3_2.gif
96.003	1	2	0	2	0.193	2	1	2_0.gif
97.003	1	1	0	1	0.312	1	1	1_0.gif
98.003	1	4	0	4	0.423	4	1	4_0.gif
99.003	1	2	0	2	0.324	2	1	2_0.gif
100.003	1	4	0	4	0.356	4	1	4_0.gif
101.003	1	1	0	1	0.391	1	1	1_0.gif
102.003	1	4	0	4	0.359	4	1	4_0.gif
103.003	1	1	0	1	0.325	1	1	1_0.gif
104.003	1	3	0	3	0.335	3	1	3_0.gif
105.003	1	4	0	4	0.41	4	1	4_0.gif
106.003	1	2	0	2	0.45	2	1	2_0.gif
107.003	1	4	0	4	0.767	4	1	4_0.gif
108.003	1	2	0	2	0.499	2	1	2_0.gif
109.003	1	4	0	4	0.426	4	1	4_0.gif
110.003	1	2	0	2	0.367	2	1	2_0.gif
111.003	1	4	0	3	0.348	4	0	4_0.gif
112.003	1	2	2	n/a	n/a	n/a	n/a	2_2.gif
113.003	1	4	2	n/a	n/a	n/a	n/a	4_2.gif
114.003	1	1	2	2	0.231	2	1	1_2.gif
115.003	1	4	2	4	0.228	4	1	4_2.gif
116.003	1	2	2	1	0.281	1	1	2_2.gif
117.003	1	1	2	2	0.417	4	0	1_2.gif
118.003	1	2	2	n/a	n/a	n/a	n/a	2_2.gif
119.003	1	3	2	1	0.134	1	1	3_2.gif
120.003	1	4	2	2	0.04	2	1	4_2.gif
121.003	1	1	2	3	0.11	3	1	1_2.gif
122.003	1	2	2	4	0.107	4	1	2_2.gif
123.003	1	3	2	1	0.224	1	1	3_2.gif
124.003	1	4	2	2	0.246	2	1	4_2.gif
125.003	1	3	2	3	0.29	3	1	3_2.gif
126.003	1	1	2	4	0.276	4	1	1_2.gif
127.003	1	3	2	3	0.302	3	1	3_2.gif
128.004	1	2	0	2	0.872	2	1	2_0.gif
129.004	1	1	0	2	0.003	1	0	1_0.gif
130.004	1	4	0	4	0.342	4	1	4_0.gif
131.004	1	1	0	1	0.36	1	1	1_0.gif
132.004	1	4	0	4	0.505	4	1	4_0.gif
133.004	1	3	0	3	0.369	3	1	3_0.gif
134.004	1	2	0	2	0.322	2	1	2_0.gif
135.004	1	4	0	4	0.404	4	1	4_0.gif
136.004	1	1	0	1	0.379	1	1	1_0.gif
137.004	1	2	0	2	0.316	2	1	2_0.gif
138.004	1	3	0	3	0.326	3	1	3_0.gif
139.004	1	2	0	2	0.372	2	1	2_0.gif
140.004	1	1	0	1	0.437	1	1	1_0.gif
141.004	1	4	0	4	0.322	4	1	4_0.gif
142.004	1	2	0	2	0.321	2	1	2_0.gif
143.004	1	1	0	1	0.531	1	1	1_0.gif
144.004	1	4	2	n/a	n/a	n/a	n/a	4_2.gif
145.004	1	1	2	n/a	n/a	n/a	n/a	1_2.gif
146.004	1	2	2	4	0.211	4	1	2_2.gif
147.004	1	1	2	1	0.187	1	1	1_2.gif
148.004	1	2	2	2	0.252	2	1	2_2.gif
149.004	1	3	2	1	0.313	1	1	3_2.gif
150.004	1	4	2	3	0.359	2	0	4_2.gif
151.004	1	2	2	n/a	n/a	n/a	n/a	2_2.gif
152.004	1	3	2	n/a	n/a	n/a	n/a	3_2.gif
153.004	1	2	2	n/a	n/a	n/a	n/a	2_2.gif
154.004	1	3	2	3	0.227	3	1	3_2.gif
155.004	1	1	2	2	0.204	2	1	1_2.gif
156.004	1	2	2	3	0.261	3	1	2_2.gif
157.004	1	1	2	1	0.296	1	1	1_2.gif
158.004	1	3	2	2	0.282	2	1	3_2.gif
159.004	1	2	2	3	0.391	1	0	2_2.gif
160.004	1	1	0	1	0.625	1	1	1_0.gif
161.004	1	3	0	3	0.369	3	1	3_0.gif
162.004	1	2	0	2	0.379	2	1	2_0.gif
163.004	1	3	0	3	0.349	3	1	3_0.gif
164.004	1	4	0	4	0.288	4	1	4_0.gif
165.004	1	1	0	1	0.321	1	1	1_0.gif
166.004	1	4	0	4	0.285	4	1	4_0.gif
167.004	1	3	0	3	0.39	3	1	3_0.gif
168.004	1	4	0	4	0.38	4	1	4_0.gif
169.004	1	2	0	2	0.264	2	1	2_0.gif
170.004	1	3	0	3	0.372	3	1	3_0.gif
171.004	1	2	0	2	0.346	2	1	2_0.gif
172.004	1	1	0	1	0.343	1	1	1_0.gif
173.004	1	3	0	3	0.36	3	1	3_0.gif
174.004	1	2	0	2	0.347	2	1	2_0.gif
175.004	1	1	0	1	0.388	1	1	1_0.gif
176.005	1	2	2	n/a	n/a	n/a	n/a	2_2.gif
177.005	1	1	2	n/a	n/a	n/a	n/a	1_2.gif
178.005	1	4	2	2	0.252	2	1	4_2.gif
179.005	1	1	2	1	0.26	1	1	1_2.gif
180.005	1	3	2	4	0.309	4	1	3_2.gif
181.005	1	1	2	1	0.353	1	1	1_2.gif
182.005	1	4	2	3	0.345	3	1	4_2.gif
183.005	1	1	2	1	0.313	1	1	1_2.gif
184.005	1	2	2	4	0.364	4	1	2_2.gif
185.005	1	3	2	1	0.316	1	1	3_2.gif
186.005	1	4	2	2	0.307	2	1	4_2.gif
187.005	1	2	2	3	0.336	3	1	2_2.gif
188.005	1	1	2	4	0.338	4	1	1_2.gif
189.005	1	3	2	2	0.288	2	1	3_2.gif
190.005	1	2	2	1	0.292	1	1	2_2.gif
191.005	1	4	2	3	0.318	3	1	4_2.gif
192.005	1	3	0	2	0.287	3	0	3_0.gif
193.005	1	2	0	2	0.473	2	1	2_0.gif
194.005	1	3	0	3	0.421	3	1	3_0.gif
195.005	1	2	0	2	0.342	2	1	2_0.gif
196.005	1	4	0	4	0.32	4	1	4_0.gif
197.005	1	1	0	1	0.367	1	1	1_0.gif
198.005	1	2	0	2	0.359	2	1	2_0.gif
199.005	1	4	0	4	0.371	4	1	4_0.gif
200.005	1	2	0	2	0.376	2	1	2_0.gif
201.005	1	1	0	1	0.474	1	1	1_0.gif
202.005	1	2	0	2	0.377	2	1	2_0.gif
203.005	1	4	0	4	0.334	4	1	4_0.gif
204.005	1	1	0	1	0.382	1	1	1_0.gif
205.005	1	3	0	3	0.411	3	1	3_0.gif
206.005	1	2	0	2	0.32	2	1	2_0.gif
207.005	1	3	0	3	0.373	3	1	3_0.gif
208.005	1	4	2	n/a	n/a	n/a	n/a	4_2.gif
209.005	1	1	2	n/a	n/a	n/a	n/a	1_2.gif
210.005	1	4	2	4	0.209	4	1	4_2.gif
211.005	1	2	2	1	0.184	1	1	2_2.gif
212.005	1	1	2	4	0.241	4	1	1_2.gif
213.005	1	2	2	2	0.242	2	1	2_2.gif
214.005	1	1	2	1	0.235	1	1	1_2.gif
215.005	1	4	2	2	0.332	2	1	4_2.gif
216.005	1	1	2	1	0.298	1	1	1_2.gif
217.005	1	2	2	4	0.23	4	1	2_2.gif
218.005	1	4	2	1	0.25	1	1	4_2.gif
219.005	1	1	2	2	0.249	2	1	1_2.gif
220.005	1	2	2	4	0.284	4	1	2_2.gif
221.005	1	3	2	1	0.335	1	1	3_2.gif
222.005	1	1	2	2	0.246	2	1	1_2.gif
223.005	1	3	2	3	0.215	3	1	3_2.gif
224.006	1	2	0	1	0.25	2	0	2_0.gif
225.006	1	4	0	n/a	n/a	n/a	n/a	4_0.gif
226.006	1	2	0	2	0.296	2	1	2_0.gif
227.006	1	4	0	4	0.393	4	1	4_0.gif
228.006	1	3	0	3	0.36	3	1	3_0.gif
229.006	1	2	0	2	0.292	2	1	2_0.gif
230.006	1	3	0	3	0.353	3	1	3_0.gif
231.006	1	4	0	4	0.442	4	1	4_0.gif
232.006	1	3	0	3	0.388	3	1	3_0.gif
233.006	1	2	0	2	0.316	2	1	2_0.gif
234.006	1	4	0	4	0.4	4	1	4_0.gif
235.006	1	2	0	2	0.371	2	1	2_0.gif
236.006	1	3	0	3	0.434	3	1	3_0.gif
237.006	1	2	0	2	0.321	2	1	2_0.gif
238.006	1	1	0	1	0.43	1	1	1_0.gif
239.006	1	3	0	3	0.404	3	1	3_0.gif
240.006	1	1	2	n/a	n/a	n/a	n/a	1_2.gif
241.006	1	3	2	n/a	n/a	n/a	n/a	3_2.gif
242.006	1	2	2	1	0.139	1	1	2_2.gif
243.006	1	3	2	3	0.123	3	1	3_2.gif
244.006	1	2	2	2	0.196	2	1	2_2.gif
245.006	1	3	2	3	0.27	3	1	3_2.gif
246.006	1	2	2	2	0.311	2	1	2_2.gif
247.006	1	3	2	3	0.328	3	1	3_2.gif
248.006	1	1	2	2	0.403	2	1	1_2.gif
249.006	1	4	2	3	0.303	3	1	4_2.gif
250.006	1	2	2	1	0.247	1	1	2_2.gif
251.006	1	3	2	4	0.272	4	1	3_2.gif
252.006	1	1	2	2	0.219	2	1	1_2.gif
253.006	1	3	2	3	0.274	3	1	3_2.gif
254.006	1	1	2	1	0.275	1	1	1_2.gif
255.006	1	3	2	3	0.408	3	1	3_2.gif
