onset	duration	nback_display	trial_type	response	response_time	correct_response	correct	stim_file
0	1	2	0	6	0	2	n/a	2_0.gif
1	1	4	0	2	0.033	4	0	4_0.gif
2	1	2	0	4	0.002	2	0	2_0.gif
3	1	1	0	2	0.003	1	0	1_0.gif
4	1	2	0	1	0.003	2	0	2_0.gif
5	1	3	0	3	0.615	3	1	3_0.gif
6	1	1	0	1	0.58	1	1	1_0.gif
7	1	4	0	4	0.657	4	1	4_0.gif
8	1	3	0	3	0.468	3	1	3_0.gif
9	1	1	0	1	0.417	1	1	1_0.gif
10	1	3	0	3	0.483	3	1	3_0.gif
11	1	4	0	4	0.341	4	1	4_0.gif
12	1	1	0	1	0.547	1	1	1_0.gif
13	1	4	0	4	0.447	4	1	4_0.gif
14	1	1	0	1	0.489	1	1	1_0.gif
15	1	4	0	4	0.422	4	1	4_0.gif
16	1	3	2	3	0.493	1	0	3_2.gif
17	1	1	2	6	0	4	n/a	1_2.gif
18	1	3	2	3	0.541	3	1	3_2.gif
19	1	2	2	1	0.558	1	1	2_2.gif
20	1	4	2	3	0.386	3	1	4_2.gif
21	1	1	2	2	0.362	2	1	1_2.gif
22	1	3	2	4	0.233	4	1	3_2.gif
23	1	4	2	1	0.362	1	1	4_2.gif
24	1	3	2	3	0.258	3	1	3_2.gif
25	1	4	2	4	0.163	4	1	4_2.gif
26	1	1	2	3	0.208	3	1	1_2.gif
27	1	2	2	6	0	4	n/a	2_2.gif
28	1	3	2	1	0.304	1	1	3_2.gif
29	1	4	2	2	0.164	2	1	4_2.gif
30	1	1	2	3	0.057	3	1	1_2.gif
31	1	4	2	4	0.003	4	1	4_2.gif
32	1	2	0	1	0.003	2	0	2_0.gif
33	1	3	0	2	0.287	3	0	3_0.gif
34	1	1	0	3	0.003	1	0	1_0.gif
35	1	4	0	4	0.605	4	1	4_0.gif
36	1	3	0	3	0.436	3	1	3_0.gif
37	1	2	0	2	0.841	2	1	2_0.gif
38	1	3	0	2	0.003	3	0	3_0.gif
39	1	2	0	2	0.558	2	1	2_0.gif
40	1	3	0	3	0.404	3	1	3_0.gif
41	1	2	0	2	0.421	2	1	2_0.gif
42	1	1	0	1	0.573	1	1	1_0.gif
43	1	2	0	2	0.644	2	1	2_0.gif
44	1	4	0	4	0.54	4	1	4_0.gif
45	1	1	0	1	0.51	1	1	1_0.gif
46	1	2	0	2	0.45	2	1	2_0.gif
47	1	4	0	4	0.548	4	1	4_0.gif
48	1	2	2	6	0	2	n/a	2_2.gif
49	1	4	2	6	0	4	n/a	4_2.gif
50	1	1	2	2	0.415	2	1	1_2.gif
51	1	4	2	4	0.209	4	1	4_2.gif
52	1	3	2	1	0.187	1	1	3_2.gif
53	1	2	2	4	0.195	4	1	2_2.gif
54	1	4	2	3	0.079	3	1	4_2.gif
55	1	2	2	2	0.028	2	1	2_2.gif
56	1	1	2	4	0.117	4	1	1_2.gif
57	1	3	2	2	0.353	2	1	3_2.gif
58	1	4	2	1	0.321	1	1	4_2.gif
59	1	3	2	3	0.266	3	1	3_2.gif
60	1	1	2	4	0.308	4	1	1_2.gif
61	1	2	2	3	0.077	3	1	2_2.gif
62	1	1	2	1	0.004	1	1	1_2.gif
63	1	2	2	2	0.004	2	1	2_2.gif
64.001	1	4	0	1	0.003	4	0	4_0.gif
65.001	1	2	0	4	0.016	2	0	2_0.gif
66.001	1	3	0	2	0.003	3	0	3_0.gif
67.001	1	2	0	2	0.478	2	1	2_0.gif
68.001	1	3	0	3	0.547	3	1	3_0.gif
69.001	1	1	0	1	0.546	1	1	1_0.gif
70.001	1	3	0	3	0.465	3	1	3_0.gif
71.001	1	1	0	1	0.426	1	1	1_0.gif
72.001	1	4	0	4	0.389	4	1	4_0.gif
73.001	1	1	0	1	0.356	1	1	1_0.gif
74.001	1	2	0	2	0.367	2	1	2_0.gif
75.001	1	3	0	3	0.464	3	1	3_0.gif
76.001	1	1	0	1	0.437	1	1	1_0.gif
77.001	1	4	0	4	0.378	4	1	4_0.gif
78.001	1	2	0	2	0.454	2	1	2_0.gif
79.001	1	4	0	4	0.485	4	1	4_0.gif
80.001	1	2	2	6	0	2	n/a	2_2.gif
81.001	1	4	2	6	0	4	n/a	4_2.gif
82.001	1	1	2	2	0.296	2	1	1_2.gif
83.001	1	4	2	4	0.152	4	1	4_2.gif
84.001	1	3	2	1	0.003	1	1	3_2.gif
85.001	1	4	2	4	0.003	4	1	4_2.gif
86.001	1	3	2	3	0.003	3	1	3_2.gif
87.001	1	4	2	4	0.003	4	1	4_2.gif
88.001	1	2	2	3	0.003	3	1	2_2.gif
89.001	1	1	2	4	0.003	4	1	1_2.gif
90.001	1	2	2	2	0.003	2	1	2_2.gif
91.001	1	3	2	1	0.056	1	1	3_2.gif
92.001	1	4	2	2	0.003	2	1	4_2.gif
93.001	1	2	2	3	0.045	3	1	2_2.gif
94.001	1	1	2	4	0.003	4	1	1_2.gif
95.001	1	2	2	2	0.003	2	1	2_2.gif
96.001	1	3	0	1	0.166	3	0	3_0.gif
97.001	1	4	0	3	0.449	4	0	4_0.gif
98.001	1	1	0	4	0.003	1	0	1_0.gif
99.001	1	3	0	3	0.53	3	1	3_0.gif
100.001	1	4	0	4	0.393	4	1	4_0.gif
101.001	1	3	0	3	0.409	3	1	3_0.gif
102.001	1	4	0	4	0.325	4	1	4_0.gif
103.001	1	2	0	2	0.498	2	1	2_0.gif
104.001	1	1	0	1	0.348	1	1	1_0.gif
105.001	1	3	0	3	0.374	3	1	3_0.gif
106.001	1	1	0	1	0.564	1	1	1_0.gif
107.001	1	4	0	4	0.461	4	1	4_0.gif
108.001	1	2	0	2	0.591	2	1	2_0.gif
109.001	1	3	0	3	0.518	3	1	3_0.gif
110.001	1	1	0	1	0.495	1	1	1_0.gif
111.001	1	3	0	3	0.442	3	1	3_0.gif
112.001	1	4	2	4	0.367	1	0	4_2.gif
113.001	1	3	2	6	0	3	n/a	3_2.gif
114.001	1	1	2	4	0.332	4	1	1_2.gif
115.001	1	3	2	3	0.307	3	1	3_2.gif
116.001	1	1	2	1	0.367	1	1	1_2.gif
117.001	1	4	2	3	0.516	3	1	4_2.gif
118.001	1	1	2	1	0.596	1	1	1_2.gif
119.001	1	2	2	4	0.465	4	1	2_2.gif
120.001	1	3	2	1	0.462	1	1	3_2.gif
121.001	1	4	2	2	0.618	2	1	4_2.gif
122.001	1	1	2	2	0.004	3	0	1_2.gif
123.001	1	3	2	1	0.552	4	0	3_2.gif
124.001	1	2	2	3	0.798	1	0	2_2.gif
125.001	1	3	2	3	0.004	3	1	3_2.gif
126.001	1	2	2	3	0.858	2	0	2_2.gif
127.001	1	3	2	3	0.004	3	1	3_2.gif
128.002	1	2	0	2	0.003	2	1	2_0.gif
129.002	1	4	0	3	0.003	4	0	4_0.gif
130.002	1	2	0	2	0.47	2	1	2_0.gif
131.002	1	4	0	4	0.487	4	1	4_0.gif
132.002	1	3	0	3	0.494	3	1	3_0.gif
133.002	1	4	0	4	0.414	4	1	4_0.gif
134.002	1	3	0	3	0.444	3	1	3_0.gif
135.002	1	4	0	4	0.332	4	1	4_0.gif
136.002	1	3	0	3	0.295	3	1	3_0.gif
137.002	1	4	0	4	0.278	4	1	4_0.gif
138.002	1	2	0	2	0.501	2	1	2_0.gif
139.002	1	3	0	3	0.44	3	1	3_0.gif
140.002	1	4	0	4	0.333	4	1	4_0.gif
141.002	1	1	0	1	0.471	1	1	1_0.gif
142.002	1	4	0	4	0.428	4	1	4_0.gif
143.002	1	1	0	1	0.471	1	1	1_0.gif
144.002	1	3	2	3	0.356	4	0	3_2.gif
145.002	1	4	2	6	0	1	n/a	4_2.gif
146.002	1	3	2	3	0.381	3	1	3_2.gif
147.002	1	2	2	4	0.339	4	1	2_2.gif
148.002	1	1	2	3	0.283	3	1	1_2.gif
149.002	1	3	2	1	0.334	2	0	3_2.gif
150.002	1	1	2	1	0.602	1	1	1_2.gif
151.002	1	3	2	3	0.644	3	1	3_2.gif
152.002	1	4	2	3	0.003	1	0	4_2.gif
153.002	1	1	2	6	0	3	n/a	1_2.gif
154.002	1	4	2	6	0	4	n/a	4_2.gif
155.002	1	1	2	4	0.656	1	0	1_2.gif
156.002	1	2	2	1	0.456	4	0	2_2.gif
157.002	1	3	2	2	0.535	1	0	3_2.gif
158.002	1	2	2	3	0.588	2	0	2_2.gif
159.002	1	3	2	2	0.693	3	0	3_2.gif
160.002	1	2	0	2	0.003	2	1	2_0.gif
161.002	1	3	0	2	0.003	3	0	3_0.gif
162.002	1	4	0	4	0.434	4	1	4_0.gif
163.002	1	3	0	3	0.399	3	1	3_0.gif
164.002	1	2	0	2	0.434	2	1	2_0.gif
165.002	1	3	0	3	0.377	3	1	3_0.gif
166.002	1	1	0	1	0.47	1	1	1_0.gif
167.002	1	3	0	3	0.399	3	1	3_0.gif
168.002	1	2	0	2	0.433	2	1	2_0.gif
169.002	1	3	0	3	0.414	3	1	3_0.gif
170.002	1	1	0	1	0.45	1	1	1_0.gif
171.002	1	2	0	2	0.468	2	1	2_0.gif
172.002	1	3	0	3	0.387	3	1	3_0.gif
173.002	1	4	0	4	0.531	4	1	4_0.gif
174.002	1	3	0	3	0.458	3	1	3_0.gif
175.002	1	2	0	2	0.44	2	1	2_0.gif
176.002	1	1	2	6	0	3	n/a	1_2.gif
177.002	1	2	2	6	0	2	n/a	2_2.gif
178.002	1	1	2	1	0.368	1	1	1_2.gif
179.002	1	4	2	2	0.255	2	1	4_2.gif
180.002	1	1	2	1	0.2	1	1	1_2.gif
181.002	1	4	2	4	0.06	4	1	4_2.gif
182.002	1	1	2	1	0.003	1	1	1_2.gif
183.002	1	3	2	4	0.004	4	1	3_2.gif
184.002	1	1	2	1	0.003	1	1	1_2.gif
185.002	1	3	2	3	0.003	3	1	3_2.gif
186.002	1	1	2	1	0.003	1	1	1_2.gif
187.002	1	3	2	3	0.003	3	1	3_2.gif
188.002	1	2	2	1	0.003	1	1	2_2.gif
189.002	1	4	2	3	0.004	3	1	4_2.gif
190.002	1	2	2	2	0.2	2	1	2_2.gif
191.002	1	1	2	4	0.102	4	1	1_2.gif
192.002	1	2	0	6	0	2	n/a	2_0.gif
193.002	1	3	0	2	0.054	3	0	3_0.gif
194.002	1	1	0	3	0.004	1	0	1_0.gif
195.002	1	4	0	4	0.273	4	1	4_0.gif
196.002	1	3	0	3	0.278	3	1	3_0.gif
197.002	1	1	0	1	0.273	1	1	1_0.gif
198.002	1	3	0	3	0.52	3	1	3_0.gif
199.002	1	4	0	4	0.322	4	1	4_0.gif
200.002	1	1	0	1	0.49	1	1	1_0.gif
201.002	1	4	0	4	0.451	4	1	4_0.gif
202.002	1	1	0	1	0.501	1	1	1_0.gif
203.002	1	4	0	4	0.342	4	1	4_0.gif
204.002	1	3	0	3	0.475	3	1	3_0.gif
205.002	1	1	0	1	0.554	1	1	1_0.gif
206.002	1	3	0	3	0.551	3	1	3_0.gif
207.002	1	2	0	2	0.457	2	1	2_0.gif
208.003	1	4	2	6	0	3	n/a	4_2.gif
209.003	1	1	2	6	0	2	n/a	1_2.gif
210.003	1	3	2	4	0.165	4	1	3_2.gif
211.003	1	4	2	1	0.116	1	1	4_2.gif
212.003	1	3	2	3	0.024	3	1	3_2.gif
213.003	1	4	2	4	0.003	4	1	4_2.gif
214.003	1	1	2	3	0.003	3	1	1_2.gif
215.003	1	2	2	4	0.003	4	1	2_2.gif
216.003	1	3	2	1	0.003	1	1	3_2.gif
217.003	1	4	2	2	0.003	2	1	4_2.gif
218.003	1	1	2	3	0.043	3	1	1_2.gif
219.003	1	4	2	4	0.003	4	1	4_2.gif
220.003	1	2	2	1	0.003	1	1	2_2.gif
221.003	1	3	2	4	0.003	4	1	3_2.gif
222.003	1	1	2	1	0.003	2	0	1_2.gif
223.003	1	4	2	3	0.003	3	1	4_2.gif
224.003	1	3	0	1	0.003	3	0	3_0.gif
225.003	1	2	0	3	0.003	2	0	2_0.gif
226.003	1	3	0	3	0.496	3	1	3_0.gif
227.003	1	2	0	2	0.454	2	1	2_0.gif
228.003	1	3	0	3	0.355	3	1	3_0.gif
229.003	1	2	0	2	0.579	2	1	2_0.gif
230.003	1	1	0	1	0.588	1	1	1_0.gif
231.003	1	2	0	2	0.692	2	1	2_0.gif
232.003	1	4	0	2	0.003	4	0	4_0.gif
233.003	1	1	0	1	0.495	1	1	1_0.gif
234.003	1	2	0	2	0.37	2	1	2_0.gif
235.003	1	4	0	4	0.331	4	1	4_0.gif
236.003	1	2	0	2	0.451	2	1	2_0.gif
237.003	1	4	0	4	0.525	4	1	4_0.gif
238.003	1	1	0	1	0.499	1	1	1_0.gif
239.003	1	4	0	4	0.629	4	1	4_0.gif
240.003	1	3	2	3	0.433	1	0	3_2.gif
241.003	1	2	2	6	0	4	n/a	2_2.gif
242.003	1	4	2	3	0.341	3	1	4_2.gif
243.003	1	2	2	2	0.387	2	1	2_2.gif
244.003	1	1	2	4	0.29	4	1	1_2.gif
245.003	1	3	2	2	0.239	2	1	3_2.gif
246.003	1	4	2	1	0.233	1	1	4_2.gif
247.003	1	3	2	3	0.233	3	1	3_2.gif
248.003	1	1	2	4	0.208	4	1	1_2.gif
249.003	1	2	2	3	0.171	3	1	2_2.gif
250.003	1	1	2	1	0.118	1	1	1_2.gif
251.003	1	2	2	2	0.059	2	1	2_2.gif
252.003	1	4	2	3	0.128	1	0	4_2.gif
253.003	1	2	2	2	0.096	2	1	2_2.gif
254.003	1	3	2	4	0.287	4	1	3_2.gif
255.003	1	2	2	3	0.424	2	0	2_2.gif
