onset	duration	nback_display	trial_type	response	response_time	correct_response	correct	stim_file
0	1	1	0	1	0.648	1	1	1_0.gif
1	1	4	0	4	0.757	4	1	4_0.gif
2	1	2	0	2	0.446	2	1	2_0.gif
3	1	1	0	1	0.375	1	1	1_0.gif
4	1	4	0	4	0.477	4	1	4_0.gif
5.001	1	1	0	1	0.375	1	1	1_0.gif
6.001	1	2	0	2	0.371	2	1	2_0.gif
7.001	1	1	0	1	0.391	1	1	1_0.gif
8.001	1	4	0	4	0.506	4	1	4_0.gif
9.001	1	3	0	3	0.47	3	1	3_0.gif
10.001	1	1	0	1	0.463	1	1	1_0.gif
11.001	1	2	0	2	0.274	2	1	2_0.gif
12.001	1	3	0	3	0.328	3	1	3_0.gif
13.001	1	1	0	1	0.333	1	1	1_0.gif
14.001	1	3	0	3	0.466	3	1	3_0.gif
15.001	1	4	0	4	0.587	4	1	4_0.gif
16.001	1	3	2	6	0	3	n/a	3_2.gif
17.001	1	4	2	6	0	4	n/a	4_2.gif
18.001	1	2	2	3	0.224	3	1	2_2.gif
19.001	1	1	2	4	0.201	4	1	1_2.gif
20.001	1	2	2	2	0.238	2	1	2_2.gif
21.001	1	1	2	1	0.349	1	1	1_2.gif
22.001	1	3	2	2	0.329	2	1	3_2.gif
23.001	1	1	2	1	0.321	1	1	1_2.gif
24.001	1	3	2	3	0.284	3	1	3_2.gif
25.001	1	2	2	1	0.315	1	1	2_2.gif
26.002	1	4	2	2	0.305	3	0	4_2.gif
27.002	1	2	2	3	0.291	2	0	2_2.gif
28.002	1	3	2	4	0.244	4	1	3_2.gif
29.002	1	1	2	2	0.257	2	1	1_2.gif
30.002	1	4	2	3	0.634	3	1	4_2.gif
31.002	1	1	2	1	0.564	1	1	1_2.gif
32.002	1	3	0	4	0.538	3	0	3_0.gif
33.002	1	1	0	3	0.007	1	0	1_0.gif
34.002	1	2	0	2	0.279	2	1	2_0.gif
35.002	1	4	0	4	0.616	4	1	4_0.gif
36.002	1	3	0	3	0.405	3	1	3_0.gif
37.002	1	1	0	1	0.309	1	1	1_0.gif
38.002	1	2	0	2	0.33	2	1	2_0.gif
39.002	1	3	0	3	0.327	3	1	3_0.gif
40.002	1	2	0	2	0.349	2	1	2_0.gif
41.002	1	1	0	1	0.392	1	1	1_0.gif
42.002	1	4	0	4	0.482	4	1	4_0.gif
43.002	1	1	0	1	0.434	1	1	1_0.gif
44.002	1	3	0	3	0.495	3	1	3_0.gif
45.002	1	4	0	4	0.619	4	1	4_0.gif
46.002	1	2	0	2	0.568	2	1	2_0.gif
47.003	1	4	0	4	0.695	4	1	4_0.gif
48.003	1	1	2	1	0.699	2	0	1_2.gif
49.003	1	3	2	6	0	4	n/a	3_2.gif
50.003	1	4	2	1	0.411	1	1	4_2.gif
51.003	1	3	2	3	0.85	3	1	3_2.gif
52.003	1	1	2	3	0.007	4	0	1_2.gif
53.003	1	4	2	6	0	3	n/a	4_2.gif
54.003	1	1	2	6	0	1	n/a	1_2.gif
55.003	1	2	2	4	0.106	4	1	2_2.gif
56.003	1	3	2	1	0.269	1	1	3_2.gif
57.003	1	1	2	2	0.291	2	1	1_2.gif
58.003	1	2	2	3	0.408	3	1	2_2.gif
59.003	1	1	2	1	0.505	1	1	1_2.gif
60.003	1	4	2	2	0.474	2	1	4_2.gif
61.003	1	2	2	1	0.563	1	1	2_2.gif
62.003	1	4	2	4	0.714	4	1	4_2.gif
63.003	1	1	2	2	0.692	2	1	1_2.gif
64.003	1	4	0	4	0.788	4	1	4_0.gif
65.003	1	2	0	2	0.463	2	1	2_0.gif
66.003	1	1	0	1	0.296	1	1	1_0.gif
67.003	1	2	0	2	0.23	2	1	2_0.gif
68.004	1	1	0	1	0.297	1	1	1_0.gif
69.004	1	3	0	3	0.436	3	1	3_0.gif
70.004	1	4	0	4	0.393	4	1	4_0.gif
71.004	1	2	0	2	0.353	2	1	2_0.gif
72.004	1	4	0	4	0.565	4	1	4_0.gif
73.004	1	3	0	3	0.738	3	1	3_0.gif
74.004	1	1	0	3	0.006	1	0	1_0.gif
75.004	1	2	0	2	0.57	2	1	2_0.gif
76.004	1	4	0	4	0.515	4	1	4_0.gif
77.004	1	3	0	3	0.459	3	1	3_0.gif
78.004	1	4	0	4	0.85	4	1	4_0.gif
79.004	1	2	0	2	0.458	2	1	2_0.gif
80.004	1	1	2	6	0	4	n/a	1_2.gif
81.004	1	3	2	6	0	2	n/a	3_2.gif
82.004	1	4	2	1	0.227	1	1	4_2.gif
83.004	1	2	2	3	0.27	3	1	2_2.gif
84.004	1	4	2	4	0.356	4	1	4_2.gif
85.004	1	2	2	2	0.404	2	1	2_2.gif
86.004	1	1	2	4	0.672	4	1	1_2.gif
87.004	1	3	2	2	0.576	2	1	3_2.gif
88.004	1	4	2	1	0.629	1	1	4_2.gif
89.004	1	1	2	3	0.554	3	1	1_2.gif
90.004	1	2	2	4	0.503	4	1	2_2.gif
91.004	1	4	2	1	0.558	1	1	4_2.gif
92.004	1	1	2	6	0	2	n/a	1_2.gif
93.004	1	3	2	4	0.393	4	1	3_2.gif
94.004	1	4	2	1	0.42	1	1	4_2.gif
95.004	1	2	2	3	0.453	3	1	2_2.gif
96.004	1	4	0	4	0.713	4	1	4_0.gif
97.004	1	2	0	2	0.356	2	1	2_0.gif
98.004	1	1	0	1	0.269	1	1	1_0.gif
99.004	1	4	0	4	0.412	4	1	4_0.gif
100.004	1	2	0	2	0.31	2	1	2_0.gif
101.004	1	3	0	3	0.624	3	1	3_0.gif
102.004	1	4	0	4	0.477	4	1	4_0.gif
103.004	1	2	0	2	0.371	2	1	2_0.gif
104.004	1	3	0	3	0.41	3	1	3_0.gif
105.004	1	4	0	4	0.379	4	1	4_0.gif
106.004	1	2	0	2	0.352	2	1	2_0.gif
107.004	1	3	0	3	0.382	3	1	3_0.gif
108.004	1	1	0	1	0.465	1	1	1_0.gif
109.004	1	2	0	2	0.366	2	1	2_0.gif
110.004	1	1	0	1	0.946	1	1	1_0.gif
111.004	1	3	0	1	0.01	3	0	3_0.gif
112.005	1	1	2	6	0	1	n/a	1_2.gif
113.005	1	3	2	6	0	3	n/a	3_2.gif
114.005	1	1	2	1	0.315	1	1	1_2.gif
115.005	1	2	2	3	0.393	3	1	2_2.gif
116.005	1	4	2	1	0.355	1	1	4_2.gif
117.005	1	2	2	2	0.328	2	1	2_2.gif
118.005	1	3	2	4	0.422	4	1	3_2.gif
119.005	1	1	2	3	0.498	2	0	1_2.gif
120.005	1	4	2	1	0.64	3	0	4_2.gif
121.005	1	3	2	6	0	1	n/a	3_2.gif
122.005	1	4	2	4	0.39	4	1	4_2.gif
123.005	1	1	2	3	0.431	3	1	1_2.gif
124.005	1	4	2	4	0.581	4	1	4_2.gif
125.005	1	1	2	1	0.61	1	1	1_2.gif
126.005	1	2	2	4	0.6	4	1	2_2.gif
127.005	1	4	2	1	0.75	1	1	4_2.gif
128.005	1	3	0	3	0.771	3	1	3_0.gif
129.005	1	1	0	1	0.457	1	1	1_0.gif
130.005	1	3	0	3	0.535	3	1	3_0.gif
131.005	1	2	0	2	0.37	2	1	2_0.gif
132.005	1	1	0	1	0.313	1	1	1_0.gif
133.005	1	2	0	2	0.362	2	1	2_0.gif
134.005	1	4	0	4	0.449	4	1	4_0.gif
135.005	1	1	0	1	0.383	1	1	1_0.gif
136.005	1	2	0	2	0.41	2	1	2_0.gif
137.005	1	1	0	1	0.461	1	1	1_0.gif
138.005	1	4	0	4	0.476	4	1	4_0.gif
139.005	1	3	0	6	0	3	n/a	3_0.gif
140.005	1	2	0	3	0.054	2	0	2_0.gif
141.005	1	3	0	3	0.367	3	1	3_0.gif
142.005	1	2	0	2	0.385	2	1	2_0.gif
143.005	1	3	0	3	0.383	3	1	3_0.gif
144.006	1	2	2	6	0	2	n/a	2_2.gif
145.006	1	3	2	6	0	3	n/a	3_2.gif
146.006	1	1	2	2	0.368	2	1	1_2.gif
147.006	1	3	2	3	0.446	3	1	3_2.gif
148.006	1	4	2	1	0.4	1	1	4_2.gif
149.006	1	3	2	3	0.581	3	1	3_2.gif
150.006	1	1	2	4	0.448	4	1	1_2.gif
151.006	1	3	2	3	0.516	3	1	3_2.gif
152.006	1	2	2	1	0.595	1	1	2_2.gif
153.006	1	3	2	3	0.704	3	1	3_2.gif
154.006	1	2	2	2	0.614	2	1	2_2.gif
155.006	1	1	2	3	0.699	3	1	1_2.gif
156.006	1	2	2	1	0.689	2	0	2_2.gif
157.006	1	1	2	2	0.824	1	0	1_2.gif
158.006	1	3	2	2	0.006	2	1	3_2.gif
159.006	1	4	2	1	0.21	1	1	4_2.gif
160.006	1	3	0	3	0.749	3	1	3_0.gif
161.006	1	1	0	1	0.66	1	1	1_0.gif
162.006	1	4	0	4	0.499	4	1	4_0.gif
163.006	1	2	0	2	0.287	2	1	2_0.gif
164.006	1	1	0	1	0.283	1	1	1_0.gif
165.006	1	2	0	2	0.373	2	1	2_0.gif
166.006	1	1	0	1	0.372	1	1	1_0.gif
167.006	1	2	0	2	0.482	2	1	2_0.gif
168.006	1	4	0	4	0.505	4	1	4_0.gif
169.006	1	3	0	3	0.497	3	1	3_0.gif
170.006	1	2	0	2	0.384	2	1	2_0.gif
171.006	1	4	0	4	0.468	4	1	4_0.gif
172.006	1	3	0	3	0.797	3	1	3_0.gif
173.006	1	1	0	3	0.007	1	0	1_0.gif
174.006	1	2	0	2	0.352	2	1	2_0.gif
175.006	1	1	0	1	0.456	1	1	1_0.gif
176.006	1	3	2	3	0.585	2	0	3_2.gif
177.006	1	1	2	6	0	1	n/a	1_2.gif
178.006	1	2	2	3	0.66	3	1	2_2.gif
179.006	1	4	2	1	0.663	1	1	4_2.gif
180.006	1	1	2	2	0.622	2	1	1_2.gif
181.006	1	3	2	4	0.928	4	1	3_2.gif
182.006	1	4	2	4	0.007	1	0	4_2.gif
183.006	1	2	2	1	0.006	3	0	2_2.gif
184.008	1	4	2	3	0.006	4	0	4_2.gif
185.008	1	3	2	2	0.03	2	1	3_2.gif
186.008	1	4	2	6	0	4	n/a	4_2.gif
187.008	1	3	2	6	0	3	n/a	3_2.gif
188.008	1	4	2	4	0.151	4	1	4_2.gif
189.008	1	2	2	3	0.318	3	1	2_2.gif
190.008	1	4	2	4	0.275	4	1	4_2.gif
191.008	1	2	2	2	0.804	2	1	2_2.gif
192.008	1	1	0	1	0.707	1	1	1_0.gif
193.008	1	4	0	4	0.46	4	1	4_0.gif
194.008	1	2	0	2	0.369	2	1	2_0.gif
195.008	1	1	0	1	0.275	1	1	1_0.gif
196.008	1	4	0	4	0.49	4	1	4_0.gif
197.008	1	1	0	1	0.492	1	1	1_0.gif
198.008	1	2	0	2	0.493	2	1	2_0.gif
199.008	1	1	0	1	0.519	1	1	1_0.gif
200.008	1	4	0	4	0.451	4	1	4_0.gif
201.008	1	3	0	3	0.542	3	1	3_0.gif
202.008	1	1	0	1	0.445	1	1	1_0.gif
203.008	1	2	0	2	0.825	2	1	2_0.gif
204.008	1	3	0	3	0.493	3	1	3_0.gif
205.01	1	1	0	1	0.365	1	1	1_0.gif
206.01	1	3	0	3	0.386	3	1	3_0.gif
207.01	1	4	0	4	0.481	4	1	4_0.gif
208.01	1	3	2	6	0	3	n/a	3_2.gif
209.01	1	4	2	6	0	4	n/a	4_2.gif
210.01	1	2	2	3	0.593	3	1	2_2.gif
211.01	1	1	2	4	0.598	4	1	1_2.gif
212.01	1	2	2	6	0	2	n/a	2_2.gif
213.01	1	1	2	2	0.131	1	0	1_2.gif
214.01	1	3	2	1	0.242	2	0	3_2.gif
215.01	1	1	2	2	0.273	1	0	1_2.gif
216.01	1	3	2	3	0.396	3	1	3_2.gif
217.01	1	2	2	1	0.546	1	1	2_2.gif
218.01	1	4	2	3	0.736	3	1	4_2.gif
219.01	1	2	2	6	0	2	n/a	2_2.gif
220.01	1	3	2	6	0	4	n/a	3_2.gif
221.01	1	1	2	2	0.276	2	1	1_2.gif
222.01	1	4	2	3	0.633	3	1	4_2.gif
223.01	1	1	2	1	0.747	1	1	1_2.gif
224.01	1	3	0	3	0.744	3	1	3_0.gif
225.01	1	1	0	1	0.715	1	1	1_0.gif
226.011	1	2	0	2	0.549	2	1	2_0.gif
227.011	1	4	0	4	0.475	4	1	4_0.gif
228.011	1	3	0	3	0.647	3	1	3_0.gif
229.011	1	1	0	1	0.444	1	1	1_0.gif
230.011	1	2	0	2	0.487	2	1	2_0.gif
231.011	1	3	0	3	0.348	3	1	3_0.gif
232.011	1	2	0	2	0.406	2	1	2_0.gif
233.011	1	1	0	1	0.424	1	1	1_0.gif
234.011	1	4	0	4	0.444	4	1	4_0.gif
235.011	1	1	0	1	0.505	1	1	1_0.gif
236.011	1	3	0	3	0.452	3	1	3_0.gif
237.011	1	4	0	4	0.558	4	1	4_0.gif
238.011	1	2	0	2	0.467	2	1	2_0.gif
239.011	1	4	0	4	0.585	4	1	4_0.gif
240.011	1	1	2	1	0.776	2	0	1_2.gif
241.011	1	3	2	6	0	4	n/a	3_2.gif
242.011	1	4	2	1	0.649	1	1	4_2.gif
243.011	1	3	2	3	0.819	3	1	3_2.gif
244.011	1	1	2	3	0.007	4	0	1_2.gif
245.011	1	4	2	4	0.007	3	0	4_2.gif
246.011	1	1	2	6	0	1	n/a	1_2.gif
247.011	1	2	2	4	0.209	4	1	2_2.gif
248.011	1	3	2	1	0.233	1	1	3_2.gif
249.011	1	1	2	2	0.224	2	1	1_2.gif
250.011	1	2	2	3	0.387	3	1	2_2.gif
251.011	1	1	2	1	0.463	1	1	1_2.gif
252.011	1	4	2	2	0.483	2	1	4_2.gif
253.011	1	2	2	1	0.523	1	1	2_2.gif
254.011	1	4	2	4	0.467	4	1	4_2.gif
255.011	1	1	2	2	0.454	2	1	1_2.gif
