onset	duration	nback_display	trial_type	response	response_time	correct_response	correct	stim_file
0	1	2	0	2	0.879	2	1	2_0.gif
1	1	4	0	2	0.005	4	0	4_0.gif
2	1	3	0	3	0.488	3	1	3_0.gif
3	1	2	0	2	0.404	2	1	2_0.gif
4	1	1	0	1	0.437	1	1	1_0.gif
5	1	2	0	2	0.433	2	1	2_0.gif
6	1	3	0	3	0.525	3	1	3_0.gif
7	1	2	0	2	0.426	2	1	2_0.gif
8	1	4	0	4	0.401	4	1	4_0.gif
9	1	3	0	3	0.374	3	1	3_0.gif
10	1	2	0	2	0.393	2	1	2_0.gif
11	1	4	0	4	0.448	4	1	4_0.gif
12	1	1	0	1	0.373	1	1	1_0.gif
13	1	4	0	4	0.415	4	1	4_0.gif
14	1	1	0	1	0.435	1	1	1_0.gif
15	1	3	0	3	0.372	3	1	3_0.gif
16	1	2	2	6	0	1	n/a	2_2.gif
17	1	1	2	6	0	3	n/a	1_2.gif
18	1	2	2	2	0.499	2	1	2_2.gif
19	1	4	2	1	0.297	1	1	4_2.gif
20	1	2	2	2	0.187	2	1	2_2.gif
21	1	4	2	4	0.598	4	1	4_2.gif
22	1	2	2	4	0.007	2	0	2_2.gif
23	1	1	2	4	0.619	4	1	1_2.gif
24	1	2	2	1	0.54	2	0	2_2.gif
25	1	4	2	6	0	1	n/a	4_2.gif
26	1	1	2	2	0.238	2	1	1_2.gif
27	1	2	2	4	0.3	4	1	2_2.gif
28	1	4	2	1	0.291	1	1	4_2.gif
29	1	2	2	2	0.513	2	1	2_2.gif
30	1	3	2	4	0.773	4	1	3_2.gif
31	1	1	2	4	0.007	2	0	1_2.gif
32	1	4	0	2	0.006	4	0	4_0.gif
33	1	1	0	4	0.03	1	0	1_0.gif
34	1	3	0	1	0.007	3	0	3_0.gif
35	1	1	0	1	0.394	1	1	1_0.gif
36	1	2	0	2	0.319	2	1	2_0.gif
37	1	1	0	1	0.39	1	1	1_0.gif
38	1	2	0	2	0.437	2	1	2_0.gif
39	1	4	0	4	0.456	4	1	4_0.gif
40	1	1	0	1	0.438	1	1	1_0.gif
41	1	2	0	2	0.416	2	1	2_0.gif
42	1	3	0	3	0.414	3	1	3_0.gif
43	1	1	0	1	0.579	1	1	1_0.gif
44	1	4	0	4	0.371	4	1	4_0.gif
45	1	1	0	1	0.403	1	1	1_0.gif
46	1	3	0	3	0.495	3	1	3_0.gif
47	1	2	0	2	0.361	2	1	2_0.gif
48	1	4	2	6	0	3	n/a	4_2.gif
49	1	2	2	6	0	2	n/a	2_2.gif
50	1	1	2	4	0.947	4	1	1_2.gif
51	1	2	2	4	0.007	2	0	2_2.gif
52	1	3	2	2	0.137	1	0	3_2.gif
53	1	2	2	1	0.006	2	0	2_2.gif
54	1	1	2	2	0.082	3	0	1_2.gif
55	1	3	2	3	0.191	2	0	3_2.gif
56	1	1	2	1	0.212	1	1	1_2.gif
57	1	3	2	3	0.323	3	1	3_2.gif
58	1	2	2	1	0.262	1	1	2_2.gif
59	1	4	2	3	0.134	3	1	4_2.gif
60	1	2	2	2	0.241	2	1	2_2.gif
61	1	3	2	4	0.362	4	1	3_2.gif
62	1	2	2	2	0.321	2	1	2_2.gif
63	1	4	2	3	0.307	3	1	4_2.gif
64	1	2	0	2	0.421	2	1	2_0.gif
65	1	1	0	1	0.515	1	1	1_0.gif
66	1	4	0	4	0.388	4	1	4_0.gif
67	1	1	0	1	0.46	1	1	1_0.gif
68	1	2	0	2	0.317	2	1	2_0.gif
69	1	3	0	3	0.476	3	1	3_0.gif
70	1	1	0	1	0.39	1	1	1_0.gif
71	1	4	0	4	0.577	4	1	4_0.gif
72	1	1	0	1	0.554	1	1	1_0.gif
73	1	3	0	3	0.413	3	1	3_0.gif
74	1	2	0	2	0.33	2	1	2_0.gif
75	1	4	0	4	0.343	4	1	4_0.gif
76	1	1	0	1	0.285	1	1	1_0.gif
77	1	3	0	3	0.381	3	1	3_0.gif
78	1	1	0	1	0.439	1	1	1_0.gif
79	1	4	0	4	0.295	4	1	4_0.gif
80.001	1	1	2	6	0	1	n/a	1_2.gif
81.001	1	3	2	6	0	4	n/a	3_2.gif
82.001	1	4	2	1	0.2	1	1	4_2.gif
83.001	1	3	2	3	0.17	3	1	3_2.gif
84.001	1	4	2	6	0	4	n/a	4_2.gif
85.001	1	2	2	3	0.748	3	1	2_2.gif
86.001	1	3	2	3	0.007	4	0	3_2.gif
87.001	1	2	2	2	0.366	2	1	2_2.gif
88.001	1	1	2	6	0	3	n/a	1_2.gif
89.001	1	4	2	1	0.268	2	0	4_2.gif
90.001	1	1	2	4	0.557	1	0	1_2.gif
91.001	1	2	2	6	0	4	n/a	2_2.gif
92.001	1	3	2	1	0.288	1	1	3_2.gif
93.001	1	4	2	2	0.402	2	1	4_2.gif
94.001	1	3	2	3	0.289	3	1	3_2.gif
95.001	1	4	2	4	0.752	4	1	4_2.gif
96.001	1	1	0	4	0.007	1	0	1_0.gif
97.001	1	4	0	1	0.006	4	0	4_0.gif
98.001	1	3	0	4	0.124	3	0	3_0.gif
99.001	1	4	0	3	0.007	4	0	4_0.gif
100.001	1	2	0	2	0.425	2	1	2_0.gif
101.001	1	1	0	1	0.293	1	1	1_0.gif
102.001	1	2	0	2	0.401	2	1	2_0.gif
103.001	1	3	0	3	0.449	3	1	3_0.gif
104.001	1	1	0	1	0.331	1	1	1_0.gif
105.001	1	3	0	3	0.399	3	1	3_0.gif
106.001	1	4	0	4	0.346	4	1	4_0.gif
107.001	1	3	0	3	0.49	3	1	3_0.gif
108.001	1	4	0	4	0.499	4	1	4_0.gif
109.001	1	1	0	1	0.356	1	1	1_0.gif
110.001	1	4	0	4	0.467	4	1	4_0.gif
111.001	1	1	0	1	0.396	1	1	1_0.gif
112.001	1	2	2	6	0	4	n/a	2_2.gif
113.001	1	3	2	6	0	1	n/a	3_2.gif
114.001	1	1	2	2	0.258	2	1	1_2.gif
115.001	1	3	2	3	0.263	3	1	3_2.gif
116.001	1	2	2	1	0.222	1	1	2_2.gif
117.001	1	4	2	3	0.183	3	1	4_2.gif
118.001	1	3	2	2	0.055	2	1	3_2.gif
119.001	1	2	2	4	0.077	4	1	2_2.gif
120.001	1	1	2	3	0.007	3	1	1_2.gif
121.001	1	3	2	2	0.061	2	1	3_2.gif
122.001	1	2	2	1	0.306	1	1	2_2.gif
123.001	1	1	2	3	0.286	3	1	1_2.gif
124.001	1	4	2	2	0.234	2	1	4_2.gif
125.001	1	2	2	1	0.276	1	1	2_2.gif
126.001	1	4	2	4	0.155	4	1	4_2.gif
127.001	1	3	2	6	0	2	n/a	3_2.gif
128.001	1	4	0	4	0.603	4	1	4_0.gif
129.001	1	2	0	2	0.469	2	1	2_0.gif
130.001	1	4	0	4	0.473	4	1	4_0.gif
131.001	1	3	0	3	0.54	3	1	3_0.gif
132.001	1	4	0	4	0.715	4	1	4_0.gif
133.001	1	3	0	3	0.469	3	1	3_0.gif
134.001	1	4	0	4	0.315	4	1	4_0.gif
135.001	1	2	0	2	0.448	2	1	2_0.gif
136.001	1	3	0	3	0.563	3	1	3_0.gif
137.001	1	4	0	4	0.424	4	1	4_0.gif
138.001	1	1	0	1	0.339	1	1	1_0.gif
139.001	1	4	0	4	0.349	4	1	4_0.gif
140.001	1	1	0	1	0.316	1	1	1_0.gif
141.001	1	2	0	2	0.399	2	1	2_0.gif
142.001	1	4	0	4	0.368	4	1	4_0.gif
143.001	1	3	0	3	0.359	3	1	3_0.gif
144.002	1	2	2	6	0	4	n/a	2_2.gif
145.002	1	1	2	6	0	3	n/a	1_2.gif
146.002	1	3	2	2	0.036	2	1	3_2.gif
147.002	1	1	2	1	0.205	1	1	1_2.gif
148.002	1	3	2	3	0.415	3	1	3_2.gif
149.002	1	4	2	1	0.425	1	1	4_2.gif
150.002	1	1	2	3	0.354	3	1	1_2.gif
151.002	1	4	2	4	0.51	4	1	4_2.gif
152.002	1	1	2	1	0.635	1	1	1_2.gif
153.002	1	2	2	4	0.491	4	1	2_2.gif
154.002	1	3	2	1	0.505	1	1	3_2.gif
155.002	1	1	2	2	0.433	2	1	1_2.gif
156.002	1	2	2	3	0.328	3	1	2_2.gif
157.002	1	3	2	1	0.506	1	1	3_2.gif
158.002	1	2	2	2	0.259	2	1	2_2.gif
159.002	1	3	2	6	0	3	n/a	3_2.gif
160.002	1	1	0	1	0.595	1	1	1_0.gif
161.002	1	3	0	3	0.534	3	1	3_0.gif
162.002	1	2	0	2	0.497	2	1	2_0.gif
163.002	1	3	0	3	0.487	3	1	3_0.gif
164.002	1	1	0	1	0.466	1	1	1_0.gif
165.002	1	4	0	4	0.354	4	1	4_0.gif
166.002	1	2	0	2	0.48	2	1	2_0.gif
167.002	1	3	0	3	0.555	3	1	3_0.gif
168.002	1	2	0	6	0	2	n/a	2_0.gif
169.002	1	3	0	3	0.342	3	1	3_0.gif
170.002	1	4	0	4	0.489	4	1	4_0.gif
171.002	1	3	0	3	0.417	3	1	3_0.gif
172.002	1	2	0	2	0.439	2	1	2_0.gif
173.002	1	1	0	1	0.369	1	1	1_0.gif
174.002	1	2	0	2	0.447	2	1	2_0.gif
175.002	1	3	0	3	0.273	3	1	3_0.gif
176.002	1	4	2	6	0	2	n/a	4_2.gif
177.002	1	1	2	6	0	3	n/a	1_2.gif
178.002	1	3	2	4	0.34	4	1	3_2.gif
179.002	1	1	2	1	0.298	1	1	1_2.gif
180.002	1	4	2	3	0.251	3	1	4_2.gif
181.002	1	1	2	1	0.03	1	1	1_2.gif
182.002	1	3	2	4	0.092	4	1	3_2.gif
183.002	1	1	2	6	0	1	n/a	1_2.gif
184.002	1	3	2	1	0.459	3	0	3_2.gif
185.002	1	1	2	6	0	1	n/a	1_2.gif
186.002	1	3	2	3	0.48	3	1	3_2.gif
187.002	1	2	2	6	0	1	n/a	2_2.gif
188.002	1	4	2	3	0.724	3	1	4_2.gif
189.002	1	3	2	2	0.213	2	1	3_2.gif
190.002	1	2	2	4	0.406	4	1	2_2.gif
191.002	1	1	2	3	0.229	3	1	1_2.gif
192.002	1	2	0	2	0.23	2	1	2_0.gif
193.002	1	3	0	3	0.47	3	1	3_0.gif
194.002	1	2	0	2	0.392	2	1	2_0.gif
195.002	1	4	0	4	0.366	4	1	4_0.gif
196.002	1	3	0	3	0.515	3	1	3_0.gif
197.002	1	2	0	2	0.479	2	1	2_0.gif
198.002	1	4	0	4	0.371	4	1	4_0.gif
199.002	1	1	0	1	0.359	1	1	1_0.gif
200.002	1	4	0	4	0.533	4	1	4_0.gif
201.002	1	1	0	1	0.43	1	1	1_0.gif
202.002	1	3	0	3	0.43	3	1	3_0.gif
203.002	1	2	0	2	0.405	2	1	2_0.gif
204.002	1	1	0	1	0.411	1	1	1_0.gif
205.002	1	2	0	2	0.424	2	1	2_0.gif
206.002	1	4	0	4	0.359	4	1	4_0.gif
207.002	1	2	0	2	0.472	2	1	2_0.gif
208.002	1	4	2	6	0	4	n/a	4_2.gif
209.002	1	2	2	6	0	2	n/a	2_2.gif
210.002	1	1	2	4	0.454	4	1	1_2.gif
211.002	1	2	2	2	0.769	2	1	2_2.gif
212.002	1	4	2	2	0.006	1	0	4_2.gif
213.002	1	1	2	1	0.007	2	0	1_2.gif
214.002	1	2	2	4	0.47	4	1	2_2.gif
215.002	1	4	2	1	0.208	1	1	4_2.gif
216.002	1	2	2	2	0.007	2	1	2_2.gif
217.002	1	3	2	4	0.362	4	1	3_2.gif
218.002	1	1	2	2	0.006	2	1	1_2.gif
219.002	1	4	2	3	0.007	3	1	4_2.gif
220.002	1	1	2	4	0.731	1	0	1_2.gif
221.002	1	3	2	4	0.006	4	1	3_2.gif
222.002	1	1	2	1	0.007	1	1	1_2.gif
223.002	1	2	2	3	0.248	3	1	2_2.gif
224.003	1	1	0	2	0.397	1	0	1_0.gif
225.003	1	2	0	1	0.006	2	0	2_0.gif
226.003	1	4	0	4	0.412	4	1	4_0.gif
227.003	1	1	0	1	0.414	1	1	1_0.gif
228.003	1	2	0	2	0.363	2	1	2_0.gif
229.003	1	3	0	3	0.514	3	1	3_0.gif
230.003	1	1	0	1	0.684	1	1	1_0.gif
231.003	1	4	0	4	0.562	4	1	4_0.gif
232.003	1	1	0	1	0.377	1	1	1_0.gif
233.003	1	3	0	3	0.516	3	1	3_0.gif
234.003	1	2	0	2	0.442	2	1	2_0.gif
235.003	1	4	0	4	0.38	4	1	4_0.gif
236.003	1	2	0	2	0.441	2	1	2_0.gif
237.003	1	1	0	1	0.404	1	1	1_0.gif
238.003	1	2	0	2	0.449	2	1	2_0.gif
239.003	1	3	0	3	0.459	3	1	3_0.gif
240.003	1	2	2	6	0	2	n/a	2_2.gif
241.003	1	1	2	6	0	3	n/a	1_2.gif
242.003	1	3	2	6	0	2	n/a	3_2.gif
243.003	1	1	2	2	0.208	1	0	1_2.gif
244.003	1	3	2	1	0.035	3	0	3_2.gif
245.003	1	2	2	3	0.243	1	0	2_2.gif
246.003	1	4	2	1	0.081	3	0	4_2.gif
247.003	1	2	2	6	0	2	n/a	2_2.gif
248.003	1	3	2	4	0.453	4	1	3_2.gif
249.003	1	2	2	2	0.807	2	1	2_2.gif
250.003	1	4	2	2	0.007	3	0	4_2.gif
251.003	1	2	2	3	0.007	2	0	2_2.gif
252.003	1	1	2	4	0.006	4	1	1_2.gif
253.003	1	4	2	6	0	2	n/a	4_2.gif
254.003	1	1	2	1	0.33	1	1	1_2.gif
255.003	1	2	2	4	0.447	4	1	2_2.gif
