onset	duration	nback_display	trial_type	response	response_time	correct_response	correct	stim_file
0	1	2	0	6	0	2	n/a	2_0.gif
1	1	1	0	2	0.373	1	0	1_0.gif
2	1	3	0	4	0.77	3	0	3_0.gif
3	1	1	0	1	0.566	1	1	1_0.gif
4	1	2	0	2	0.679	2	1	2_0.gif
5	1	3	0	3	0.649	3	1	3_0.gif
6	1	1	0	1	0.576	1	1	1_0.gif
7	1	4	0	4	0.567	4	1	4_0.gif
8	1	3	0	3	0.525	3	1	3_0.gif
9	1	1	0	1	0.476	1	1	1_0.gif
10	1	3	0	3	0.578	3	1	3_0.gif
11	1	4	0	4	0.535	4	1	4_0.gif
12	1	1	0	1	0.453	1	1	1_0.gif
13	1	4	0	4	0.53	4	1	4_0.gif
14	1	1	0	6	0	1	n/a	1_0.gif
15	1	4	0	4	0.79	4	1	4_0.gif
16.001	1	2	2	6	0	1	n/a	2_2.gif
17.001	1	1	2	2	0.125	4	0	1_2.gif
18.001	1	3	2	6	0	2	n/a	3_2.gif
19.001	1	2	2	2	0.872	1	0	2_2.gif
20.001	1	4	2	2	0.008	3	0	4_2.gif
21.001	1	1	2	6	0	2	n/a	1_2.gif
22.001	1	3	2	6	0	4	n/a	3_2.gif
23.001	1	4	2	1	0.307	1	1	4_2.gif
24.001	1	3	2	2	0.246	3	0	3_2.gif
25.001	1	4	2	6	0	4	n/a	4_2.gif
26.001	1	2	2	6	0	3	n/a	2_2.gif
27.001	1	3	2	6	0	4	n/a	3_2.gif
28.001	1	1	2	1	0.317	2	0	1_2.gif
29.001	1	2	2	6	0	3	n/a	2_2.gif
30.001	1	4	2	6	0	1	n/a	4_2.gif
31.001	1	1	2	6	0	2	n/a	1_2.gif
32.002	1	3	0	6	0	3	n/a	3_0.gif
33.002	1	4	0	4	0.132	4	1	4_0.gif
34.002	1	2	0	2	0.249	2	1	2_0.gif
35.002	1	3	0	6	0	3	n/a	3_0.gif
36.002	1	2	0	6	0	2	n/a	2_0.gif
37.002	1	3	0	6	0	3	n/a	3_0.gif
38.002	1	1	0	3	0.425	1	0	1_0.gif
39.002	1	4	0	6	0	4	n/a	4_0.gif
40.002	1	1	0	4	0.284	1	0	1_0.gif
41.002	1	2	0	1	0.008	2	0	2_0.gif
42.002	1	3	0	3	0.759	3	1	3_0.gif
43.002	1	2	0	2	0.617	2	1	2_0.gif
44.002	1	4	0	4	0.541	4	1	4_0.gif
45.002	1	1	0	1	0.415	1	1	1_0.gif
46.002	1	4	0	4	0.53	4	1	4_0.gif
47.002	1	3	0	3	0.575	3	1	3_0.gif
48.002	1	2	2	2	0.57	4	0	2_2.gif
49.002	1	4	2	6	0	3	n/a	4_2.gif
50.002	1	2	2	2	0.335	2	1	2_2.gif
51.002	1	1	2	4	0.332	4	1	1_2.gif
52.002	1	2	2	1	0.32	2	0	2_2.gif
53.002	1	4	2	2	0.315	1	0	4_2.gif
54.002	1	2	2	4	0.306	2	0	2_2.gif
55.002	1	1	2	2	0.389	4	0	1_2.gif
56.002	1	2	2	1	0.393	2	0	2_2.gif
57.002	1	1	2	1	0.609	1	1	1_2.gif
58.002	1	4	2	4	0.702	2	0	4_2.gif
59.002	1	2	2	2	0.612	1	0	2_2.gif
60.002	1	3	2	6	0	4	n/a	3_2.gif
61.002	1	4	2	6	0	2	n/a	4_2.gif
62.002	1	2	2	3	0.857	3	1	2_2.gif
63.002	1	4	2	3	0.009	4	0	4_2.gif
64.003	1	1	0	2	0.463	1	0	1_0.gif
65.003	1	4	0	1	0.154	4	0	4_0.gif
66.003	1	2	0	4	0.008	2	0	2_0.gif
67.003	1	3	0	2	0.009	3	0	3_0.gif
68.003	1	4	0	4	0.647	4	1	4_0.gif
69.003	1	1	0	1	0.408	1	1	1_0.gif
70.003	1	4	0	4	0.457	4	1	4_0.gif
71.003	1	2	0	2	0.501	2	1	2_0.gif
72.003	1	4	0	4	0.459	4	1	4_0.gif
73.003	1	1	0	1	0.31	1	1	1_0.gif
74.003	1	4	0	4	0.334	4	1	4_0.gif
75.003	1	3	0	3	0.46	3	1	3_0.gif
76.003	1	4	0	4	0.376	4	1	4_0.gif
77.003	1	3	0	3	0.494	3	1	3_0.gif
78.003	1	1	0	1	0.459	1	1	1_0.gif
79.003	1	2	0	2	0.351	2	1	2_0.gif
80.003	1	3	2	3	0.604	1	0	3_2.gif
81.003	1	4	2	6	0	2	n/a	4_2.gif
82.004	1	3	2	3	0.18	3	1	3_2.gif
83.004	1	1	2	4	0.008	4	1	1_2.gif
84.004	1	2	2	1	0.008	3	0	2_2.gif
85.004	1	3	2	2	0.008	1	0	3_2.gif
86.004	1	4	2	3	0.061	2	0	4_2.gif
87.004	1	3	2	4	0.149	3	0	3_2.gif
88.004	1	2	2	3	0.168	4	0	2_2.gif
89.004	1	4	2	2	0.203	3	0	4_2.gif
90.004	1	3	2	4	0.196	2	0	3_2.gif
91.004	1	4	2	3	0.278	4	0	4_2.gif
92.004	1	2	2	4	0.292	3	0	2_2.gif
93.004	1	1	2	2	0.302	4	0	1_2.gif
94.004	1	4	2	1	0.396	2	0	4_2.gif
95.004	1	1	2	4	0.454	1	0	1_2.gif
96.004	1	4	0	1	0.452	4	0	4_0.gif
97.004	1	1	0	4	0.203	1	0	1_0.gif
98.004	1	4	0	4	0.856	4	1	4_0.gif
99.004	1	1	0	1	0.588	1	1	1_0.gif
100.004	1	3	0	3	0.657	3	1	3_0.gif
101.004	1	1	0	1	0.535	1	1	1_0.gif
102.004	1	3	0	3	0.477	3	1	3_0.gif
103.004	1	4	0	4	0.36	4	1	4_0.gif
104.004	1	3	0	3	0.451	3	1	3_0.gif
105.004	1	1	0	1	0.466	1	1	1_0.gif
106.004	1	3	0	3	0.445	3	1	3_0.gif
107.004	1	1	0	6	0	1	n/a	1_0.gif
108.004	1	4	0	4	0.707	4	1	4_0.gif
109.004	1	1	0	1	0.593	1	1	1_0.gif
110.004	1	2	0	2	0.696	2	1	2_0.gif
111.004	1	3	0	3	0.675	3	1	3_0.gif
112.005	1	2	2	6	0	2	n/a	2_2.gif
113.005	1	1	2	2	0.959	3	0	1_2.gif
114.005	1	2	2	2	0.009	2	1	2_2.gif
115.005	1	4	2	1	0.165	1	1	4_2.gif
116.005	1	2	2	4	0.138	2	0	2_2.gif
117.005	1	4	2	2	0.05	4	0	4_2.gif
118.005	1	1	2	4	0.011	2	0	1_2.gif
119.005	1	4	2	1	0.013	4	0	4_2.gif
120.005	1	3	2	4	0.009	1	0	3_2.gif
121.005	1	4	2	3	0.01	4	0	4_2.gif
122.005	1	2	2	4	0.009	3	0	2_2.gif
123.005	1	3	2	2	0.01	4	0	3_2.gif
124.005	1	4	2	3	0.011	2	0	4_2.gif
125.005	1	3	2	6	0	3	n/a	3_2.gif
126.005	1	1	2	3	0.284	4	0	1_2.gif
127.005	1	2	2	1	0.184	3	0	2_2.gif
128.006	1	4	0	2	0.035	4	0	4_0.gif
129.006	1	3	0	4	0.039	3	0	3_0.gif
130.006	1	1	0	3	0.009	1	0	1_0.gif
131.006	1	4	0	4	0.569	4	1	4_0.gif
132.006	1	3	0	3	0.412	3	1	3_0.gif
133.006	1	1	0	1	0.349	1	1	1_0.gif
134.006	1	3	0	3	0.459	3	1	3_0.gif
135.006	1	4	0	4	0.533	4	1	4_0.gif
136.006	1	3	0	6	0	3	n/a	3_0.gif
137.006	1	1	0	1	0.884	1	1	1_0.gif
138.006	1	2	0	1	0.009	2	0	2_0.gif
139.006	1	3	0	3	0.516	3	1	3_0.gif
140.006	1	1	0	1	0.375	1	1	1_0.gif
141.006	1	2	0	2	0.403	2	1	2_0.gif
142.006	1	1	0	1	0.445	1	1	1_0.gif
143.006	1	3	0	3	0.524	3	1	3_0.gif
144.007	1	4	2	4	0.486	1	0	4_2.gif
145.007	1	1	2	6	0	3	n/a	1_2.gif
146.007	1	4	2	4	0.085	4	1	4_2.gif
147.007	1	1	2	1	0.009	1	1	1_2.gif
148.007	1	2	2	4	0.079	4	1	2_2.gif
149.007	1	3	2	1	0.009	1	1	3_2.gif
150.007	1	2	2	2	0.009	2	1	2_2.gif
151.007	1	1	2	3	0.009	3	1	1_2.gif
152.007	1	4	2	6	0	2	n/a	4_2.gif
153.007	1	3	2	1	0.07	1	1	3_2.gif
154.007	1	2	2	4	0.008	4	1	2_2.gif
155.007	1	3	2	2	0.484	3	0	3_2.gif
156.007	1	1	2	3	0.445	2	0	1_2.gif
157.007	1	3	2	1	0.391	3	0	3_2.gif
158.007	1	1	2	3	0.257	1	0	1_2.gif
159.007	1	3	2	1	0.162	3	0	3_2.gif
160.008	1	1	0	3	0.027	1	0	1_0.gif
161.008	1	2	0	1	0.008	2	0	2_0.gif
162.008	1	3	0	2	0.008	3	0	3_0.gif
163.008	1	4	0	6	0	4	n/a	4_0.gif
164.008	1	3	0	3	0.804	3	1	3_0.gif
165.008	1	1	0	3	0.008	1	0	1_0.gif
166.008	1	3	0	3	0.826	3	1	3_0.gif
167.008	1	1	0	3	0.008	1	0	1_0.gif
168.008	1	3	0	3	0.524	3	1	3_0.gif
169.008	1	4	0	4	0.541	4	1	4_0.gif
170.008	1	1	0	1	0.356	1	1	1_0.gif
171.008	1	3	0	3	0.304	3	1	3_0.gif
172.008	1	1	0	1	0.431	1	1	1_0.gif
173.008	1	3	0	3	0.413	3	1	3_0.gif
174.008	1	4	0	4	0.559	4	1	4_0.gif
175.008	1	2	0	2	0.703	2	1	2_0.gif
176.008	1	1	2	1	0.507	4	0	1_2.gif
177.008	1	3	2	6	0	2	n/a	3_2.gif
178.009	1	2	2	1	0.66	1	1	2_2.gif
179.009	1	1	2	3	0.485	3	1	1_2.gif
180.009	1	3	2	2	0.375	2	1	3_2.gif
181.009	1	1	2	1	0.382	1	1	1_2.gif
182.009	1	2	2	3	0.314	3	1	2_2.gif
183.009	1	3	2	1	0.248	1	1	3_2.gif
184.009	1	1	2	3	0.202	2	0	1_2.gif
185.009	1	4	2	2	0.124	3	0	4_2.gif
186.009	1	3	2	4	0.035	1	0	3_2.gif
187.009	1	1	2	3	0.021	4	0	1_2.gif
188.009	1	3	2	1	0.009	3	0	3_2.gif
189.009	1	4	2	6	0	1	n/a	4_2.gif
190.009	1	1	2	1	0.319	3	0	1_2.gif
191.009	1	4	2	3	0.142	4	0	4_2.gif
192.01	1	1	0	1	0.973	1	1	1_0.gif
193.01	1	4	0	1	0.009	4	0	4_0.gif
194.01	1	2	0	4	0.048	2	0	2_0.gif
195.01	1	1	0	2	0.008	1	0	1_0.gif
196.01	1	3	0	1	0.008	3	0	3_0.gif
197.01	1	2	0	3	0.008	2	0	2_0.gif
198.01	1	4	0	2	0.008	4	0	4_0.gif
199.01	1	1	0	1	0.541	1	1	1_0.gif
200.01	1	3	0	3	0.565	3	1	3_0.gif
201.013	1	4	0	4	0.437	4	1	4_0.gif
202.013	1	3	0	3	0.432	3	1	3_0.gif
203.013	1	4	0	4	0.491	4	1	4_0.gif
204.013	1	2	0	2	0.507	2	1	2_0.gif
205.013	1	3	0	3	0.513	3	1	3_0.gif
206.013	1	1	0	1	0.41	1	1	1_0.gif
207.013	1	2	0	2	0.371	2	1	2_0.gif
208.014	1	4	2	6	0	1	n/a	4_2.gif
209.014	1	1	2	4	0.908	2	0	1_2.gif
210.014	1	3	2	4	0.008	4	1	3_2.gif
211.014	1	4	2	1	0.234	1	1	4_2.gif
212.014	1	2	2	3	0.187	3	1	2_2.gif
213.014	1	3	2	2	0.193	4	0	3_2.gif
214.014	1	2	2	3	0.238	2	0	2_2.gif
215.014	1	3	2	2	0.175	3	0	3_2.gif
216.029	1	1	2	1	0.771	2	0	1_2.gif
217.029	1	4	2	1	0.009	3	0	4_2.gif
218.029	1	1	2	4	0.009	1	0	1_2.gif
219.029	1	2	2	1	0.088	4	0	2_2.gif
220.029	1	3	2	4	0.053	1	0	3_2.gif
221.029	1	2	2	2	0.02	2	1	2_2.gif
222.029	1	4	2	3	0.109	3	1	4_2.gif
223.031	1	1	2	2	0.01	2	1	1_2.gif
224.032	1	4	0	4	0.83	4	1	4_0.gif
225.032	1	3	0	4	0.008	3	0	3_0.gif
226.032	1	2	0	2	0.567	2	1	2_0.gif
227.032	1	4	0	4	0.451	4	1	4_0.gif
228.032	1	2	0	2	0.394	2	1	2_0.gif
229.032	1	1	0	1	0.456	1	1	1_0.gif
230.032	1	2	0	2	0.396	2	1	2_0.gif
231.032	1	4	0	4	0.516	4	1	4_0.gif
232.032	1	2	0	2	0.437	2	1	2_0.gif
233.032	1	1	0	1	0.428	1	1	1_0.gif
234.032	1	2	0	2	0.437	2	1	2_0.gif
235.032	1	1	0	1	0.459	1	1	1_0.gif
236.032	1	4	0	4	0.433	4	1	4_0.gif
237.032	1	2	0	2	0.375	2	1	2_0.gif
238.032	1	3	0	3	0.434	3	1	3_0.gif
239.032	1	4	0	4	0.539	4	1	4_0.gif
240.032	1	2	2	2	0.648	3	0	2_2.gif
241.032	1	4	2	6	0	4	n/a	4_2.gif
242.032	1	1	2	2	0.946	2	1	1_2.gif
243.032	1	4	2	2	0.008	4	0	4_2.gif
244.032	1	2	2	4	0.009	1	0	2_2.gif
245.032	1	3	2	4	0.531	4	1	3_2.gif
246.032	1	4	2	2	0.479	2	1	4_2.gif
247.032	1	1	2	3	0.254	3	1	1_2.gif
248.032	1	4	2	4	0.038	4	1	4_2.gif
249.032	1	2	2	1	0.042	1	1	2_2.gif
250.032	1	4	2	2	0.022	4	0	4_2.gif
251.032	1	1	2	4	0.008	2	0	1_2.gif
252.032	1	4	2	1	0.009	4	0	4_2.gif
253.032	1	3	2	4	0.06	1	0	3_2.gif
254.032	1	4	2	4	0.508	4	1	4_2.gif
255.032	1	3	2	1	0.324	3	0	3_2.gif
