onset	duration	nback_display	trial_type	response	response_time	correct_response	correct	stim_file
0	1	2	0	2	0.621	2	1	2_0.gif
1	1	3	0	3	0.727	3	1	3_0.gif
2	1	2	0	3	0.005	2	0	2_0.gif
3	1	3	0	3	0.304	3	1	3_0.gif
4	1	2	0	2	0.232	2	1	2_0.gif
5	1	4	0	4	0.364	4	1	4_0.gif
6	1	2	0	2	0.497	2	1	2_0.gif
7	1	3	0	3	0.364	3	1	3_0.gif
8	1	4	0	4	0.361	4	1	4_0.gif
9	1	2	0	2	0.228	2	1	2_0.gif
10	1	4	0	4	0.662	4	1	4_0.gif
11	1	1	0	1	0.565	1	1	1_0.gif
12	1	4	0	4	0.503	4	1	4_0.gif
13	1	1	0	1	0.518	1	1	1_0.gif
14	1	3	0	3	0.521	3	1	3_0.gif
15	1	2	0	6	0	2	n/a	2_0.gif
16	1	4	2	1	0.287	3	0	4_2.gif
17	1	2	2	3	0.164	2	0	2_2.gif
18	1	3	2	2	0.007	4	0	3_2.gif
19	1	2	2	2	0.757	2	1	2_2.gif
20	1	4	2	6	0	3	n/a	4_2.gif
21	1	1	2	6	0	2	n/a	1_2.gif
22	1	2	2	4	0.402	4	1	2_2.gif
23	1	4	2	6	0	1	n/a	4_2.gif
24	1	3	2	2	0.236	2	1	3_2.gif
25	1	1	2	6	0	4	n/a	1_2.gif
26	1	3	2	3	0.577	3	1	3_2.gif
27	1	4	2	6	0	1	n/a	4_2.gif
28	1	2	2	6	0	3	n/a	2_2.gif
29	1	3	2	4	0.37	4	1	3_2.gif
30	1	1	2	6	0	2	n/a	1_2.gif
31	1	4	2	3	0.551	3	1	4_2.gif
32	1	2	0	2	0.719	2	1	2_0.gif
33	1	3	0	2	0.007	3	0	3_0.gif
34	1	1	0	1	0.512	1	1	1_0.gif
35	1	2	0	2	0.246	2	1	2_0.gif
36	1	4	0	4	0.279	4	1	4_0.gif
37	1	1	0	1	0.444	1	1	1_0.gif
38	1	4	0	4	0.359	4	1	4_0.gif
39	1	3	0	3	0.425	3	1	3_0.gif
40	1	2	0	2	0.27	2	1	2_0.gif
41	1	4	0	4	0.369	4	1	4_0.gif
42	1	1	0	1	0.287	1	1	1_0.gif
43	1	2	0	2	0.25	2	1	2_0.gif
44	1	4	0	4	0.325	4	1	4_0.gif
45	1	2	0	2	0.354	2	1	2_0.gif
46	1	3	0	3	0.341	3	1	3_0.gif
47	1	4	0	4	0.341	4	1	4_0.gif
48	1	2	2	6	0	3	n/a	2_2.gif
49	1	3	2	6	0	4	n/a	3_2.gif
50	1	2	2	2	0.243	2	1	2_2.gif
51	1	1	2	6	0	3	n/a	1_2.gif
52	1	3	2	6	0	2	n/a	3_2.gif
53	1	1	2	1	0.472	1	1	1_2.gif
54	1	3	2	6	0	3	n/a	3_2.gif
55	1	1	2	6	0	1	n/a	1_2.gif
56	1	3	2	6	0	3	n/a	3_2.gif
57	1	2	2	3	0.15	1	0	2_2.gif
58	1	3	2	6	0	3	n/a	3_2.gif
59	1	2	2	2	0.453	2	1	2_2.gif
60	1	3	2	6	0	3	n/a	3_2.gif
61	1	2	2	6	0	2	n/a	2_2.gif
62.001	1	4	2	3	0.358	3	1	4_2.gif
63.001	1	3	2	6	0	2	n/a	3_2.gif
64.001	1	2	0	4	0.64	2	0	2_0.gif
65.001	1	1	0	2	0.006	1	0	1_0.gif
66.001	1	2	0	2	0.364	2	1	2_0.gif
67.001	1	3	0	3	0.362	3	1	3_0.gif
68.001	1	1	0	1	0.4	1	1	1_0.gif
69.001	1	4	0	4	0.352	4	1	4_0.gif
70.001	1	1	0	1	0.352	1	1	1_0.gif
71.001	1	3	0	3	0.342	3	1	3_0.gif
72.001	1	2	0	2	0.293	2	1	2_0.gif
73.001	1	4	0	4	0.257	4	1	4_0.gif
74.001	1	1	0	1	0.293	1	1	1_0.gif
75.001	1	3	0	3	0.4	3	1	3_0.gif
76.001	1	1	0	1	0.497	1	1	1_0.gif
77.001	1	3	0	3	0.44	3	1	3_0.gif
78.001	1	1	0	1	0.667	1	1	1_0.gif
79.001	1	3	0	1	0.009	3	0	3_0.gif
80.001	1	4	2	6	0	1	n/a	4_2.gif
81.001	1	1	2	6	0	3	n/a	1_2.gif
82.001	1	4	2	4	0.227	4	1	4_2.gif
83.001	1	2	2	6	0	1	n/a	2_2.gif
84.001	1	3	2	6	0	4	n/a	3_2.gif
85.001	1	1	2	2	0.277	2	1	1_2.gif
86.001	1	2	2	6	0	3	n/a	2_2.gif
87.001	1	1	2	1	0.394	1	1	1_2.gif
88.001	1	4	2	6	0	2	n/a	4_2.gif
89.001	1	2	2	6	0	1	n/a	2_2.gif
90.001	1	3	2	4	0.286	4	1	3_2.gif
91.001	1	2	2	6	0	2	n/a	2_2.gif
92.001	1	1	2	3	0.283	3	1	1_2.gif
93.001	1	3	2	6	0	2	n/a	3_2.gif
94.001	1	4	2	1	0.235	1	1	4_2.gif
95.001	1	1	2	6	0	3	n/a	1_2.gif
96.001	1	3	0	4	0.309	3	0	3_0.gif
97.001	1	4	0	3	0.009	4	0	4_0.gif
98.001	1	1	0	1	0.359	1	1	1_0.gif
99.001	1	4	0	4	0.343	4	1	4_0.gif
100.001	1	3	0	3	0.407	3	1	3_0.gif
101.001	1	4	0	4	0.388	4	1	4_0.gif
102.001	1	2	0	2	0.262	2	1	2_0.gif
103.001	1	4	0	4	0.417	4	1	4_0.gif
104.001	1	1	0	1	0.456	1	1	1_0.gif
105.001	1	2	0	2	0.363	2	1	2_0.gif
106.001	1	4	0	4	0.236	4	1	4_0.gif
107.001	1	2	0	2	0.291	2	1	2_0.gif
108.001	1	4	0	4	0.272	4	1	4_0.gif
109.001	1	2	0	2	0.301	2	1	2_0.gif
110.001	1	3	0	3	0.383	3	1	3_0.gif
111.001	1	1	0	1	0.29	1	1	1_0.gif
112.001	1	3	2	3	0.96	3	1	3_2.gif
113.001	1	4	2	3	0.007	1	0	4_2.gif
114.001	1	2	2	6	0	3	n/a	2_2.gif
115.001	1	4	2	6	0	4	n/a	4_2.gif
116.001	1	1	2	6	0	2	n/a	1_2.gif
117.001	1	4	2	6	0	4	n/a	4_2.gif
118.001	1	1	2	1	0.156	1	1	1_2.gif
119.001	1	4	2	6	0	4	n/a	4_2.gif
120.001	1	2	2	6	0	1	n/a	2_2.gif
121.001	1	3	2	4	0.196	4	1	3_2.gif
122.001	1	1	2	2	0.71	2	1	1_2.gif
123.001	1	4	2	6	0	3	n/a	4_2.gif
124.001	1	3	2	6	0	1	n/a	3_2.gif
125.002	1	2	2	6	0	4	n/a	2_2.gif
126.002	1	4	2	3	0.055	3	1	4_2.gif
127.002	1	1	2	6	0	2	n/a	1_2.gif
128.002	1	2	0	4	0.298	2	0	2_0.gif
129.002	1	3	0	3	0.439	3	1	3_0.gif
130.002	1	2	0	2	0.288	2	1	2_0.gif
131.002	1	1	0	1	0.324	1	1	1_0.gif
132.002	1	4	0	4	0.279	4	1	4_0.gif
133.002	1	1	0	1	0.406	1	1	1_0.gif
134.002	1	3	0	3	0.354	3	1	3_0.gif
135.002	1	4	0	4	0.333	4	1	4_0.gif
136.002	1	1	0	1	0.386	1	1	1_0.gif
137.002	1	4	0	4	0.241	4	1	4_0.gif
138.002	1	2	0	2	0.261	2	1	2_0.gif
139.002	1	4	0	4	0.371	4	1	4_0.gif
140.002	1	3	0	3	0.412	3	1	3_0.gif
141.002	1	2	0	2	0.293	2	1	2_0.gif
142.002	1	4	0	4	0.345	4	1	4_0.gif
143.002	1	2	0	2	0.324	2	1	2_0.gif
144.002	1	1	2	6	0	4	n/a	1_2.gif
145.002	1	4	2	6	0	2	n/a	4_2.gif
146.002	1	1	2	1	0.471	1	1	1_2.gif
147.002	1	3	2	6	0	4	n/a	3_2.gif
148.002	1	1	2	1	0.444	1	1	1_2.gif
149.002	1	2	2	6	0	3	n/a	2_2.gif
150.002	1	4	2	6	0	1	n/a	4_2.gif
151.002	1	2	2	2	0.384	2	1	2_2.gif
152.002	1	3	2	6	0	4	n/a	3_2.gif
153.002	1	2	2	6	0	2	n/a	2_2.gif
154.002	1	4	2	3	0.309	3	1	4_2.gif
155.002	1	1	2	6	0	2	n/a	1_2.gif
156.002	1	3	2	4	0.293	4	1	3_2.gif
157.002	1	1	2	3	0.208	1	0	1_2.gif
158.002	1	3	2	6	0	3	n/a	3_2.gif
159.002	1	4	2	6	0	1	n/a	4_2.gif
160.002	1	1	0	1	0.71	1	1	1_0.gif
161.002	1	4	0	4	0.388	4	1	4_0.gif
162.002	1	3	0	3	0.416	3	1	3_0.gif
163.002	1	1	0	1	0.456	1	1	1_0.gif
164.002	1	2	0	2	0.334	2	1	2_0.gif
165.002	1	1	0	1	0.405	1	1	1_0.gif
166.002	1	2	0	2	0.347	2	1	2_0.gif
167.002	1	3	0	3	0.41	3	1	3_0.gif
168.002	1	2	0	2	0.346	2	1	2_0.gif
169.002	1	3	0	3	0.424	3	1	3_0.gif
170.002	1	1	0	1	0.375	1	1	1_0.gif
171.002	1	2	0	2	0.309	2	1	2_0.gif
172.002	1	3	0	3	0.375	3	1	3_0.gif
173.002	1	2	0	2	0.337	2	1	2_0.gif
174.002	1	1	0	1	0.367	1	1	1_0.gif
175.002	1	2	0	2	0.357	2	1	2_0.gif
176.002	1	3	2	6	0	1	n/a	3_2.gif
177.002	1	1	2	6	0	2	n/a	1_2.gif
178.002	1	4	2	3	0.371	3	1	4_2.gif
179.002	1	2	2	6	0	1	n/a	2_2.gif
180.002	1	1	2	4	0.268	4	1	1_2.gif
181.002	1	4	2	6	0	2	n/a	4_2.gif
182.002	1	1	2	1	0.382	1	1	1_2.gif
183.002	1	3	2	6	0	4	n/a	3_2.gif
184.002	1	1	2	6	0	1	n/a	1_2.gif
185.002	1	4	2	3	0.1	3	1	4_2.gif
186.002	1	1	2	6	0	1	n/a	1_2.gif
187.002	1	2	2	2	0.339	4	0	2_2.gif
188.002	1	1	2	6	0	1	n/a	1_2.gif
189.002	1	3	2	6	0	2	n/a	3_2.gif
190.003	1	1	2	2	0.404	1	0	1_2.gif
191.003	1	3	2	6	0	3	n/a	3_2.gif
192.003	1	2	0	1	0.322	2	0	2_0.gif
193.003	1	3	0	3	0.407	3	1	3_0.gif
194.003	1	2	0	2	0.308	2	1	2_0.gif
195.003	1	3	0	3	0.361	3	1	3_0.gif
196.003	1	2	0	2	0.276	2	1	2_0.gif
197.003	1	4	0	4	0.4	4	1	4_0.gif
198.003	1	2	0	2	0.286	2	1	2_0.gif
199.003	1	3	0	3	0.4	3	1	3_0.gif
200.003	1	4	0	4	0.358	4	1	4_0.gif
201.003	1	2	0	2	0.258	2	1	2_0.gif
202.003	1	4	0	4	0.252	4	1	4_0.gif
203.003	1	1	0	1	0.379	1	1	1_0.gif
204.003	1	4	0	4	0.378	4	1	4_0.gif
205.003	1	1	0	1	0.373	1	1	1_0.gif
206.003	1	3	0	3	0.339	3	1	3_0.gif
207.003	1	2	0	2	0.256	2	1	2_0.gif
208.003	1	4	2	6	0	3	n/a	4_2.gif
209.003	1	2	2	6	0	2	n/a	2_2.gif
210.003	1	3	2	4	0.356	4	1	3_2.gif
211.003	1	2	2	6	0	2	n/a	2_2.gif
212.003	1	4	2	3	0.023	3	1	4_2.gif
213.003	1	1	2	6	0	2	n/a	1_2.gif
214.003	1	2	2	4	0.173	4	1	2_2.gif
215.003	1	4	2	6	0	1	n/a	4_2.gif
216.003	1	3	2	2	0.28	2	1	3_2.gif
217.003	1	1	2	6	0	4	n/a	1_2.gif
218.003	1	3	2	3	0.464	3	1	3_2.gif
219.003	1	4	2	6	0	1	n/a	4_2.gif
220.003	1	2	2	4	0.416	3	0	2_2.gif
221.003	1	3	2	6	0	4	n/a	3_2.gif
222.003	1	1	2	6	0	2	n/a	1_2.gif
223.003	1	4	2	3	0.315	3	1	4_2.gif
224.003	1	2	0	2	0.627	2	1	2_0.gif
225.003	1	3	0	3	0.392	3	1	3_0.gif
226.003	1	1	0	1	0.366	1	1	1_0.gif
227.003	1	2	0	2	0.371	2	1	2_0.gif
228.003	1	4	0	4	0.455	4	1	4_0.gif
229.003	1	1	0	1	0.38	1	1	1_0.gif
230.003	1	4	0	4	0.379	4	1	4_0.gif
231.003	1	3	0	3	0.386	3	1	3_0.gif
232.003	1	2	0	2	0.325	2	1	2_0.gif
233.003	1	4	0	4	0.325	4	1	4_0.gif
234.003	1	1	0	1	0.427	1	1	1_0.gif
235.003	1	2	0	2	0.261	2	1	2_0.gif
236.003	1	4	0	4	0.383	4	1	4_0.gif
237.003	1	2	0	2	0.395	2	1	2_0.gif
238.003	1	3	0	3	0.434	3	1	3_0.gif
239.003	1	4	0	4	0.313	4	1	4_0.gif
240.003	1	2	2	6	0	3	n/a	2_2.gif
241.003	1	3	2	6	0	4	n/a	3_2.gif
242.003	1	2	2	2	0.263	2	1	2_2.gif
243.003	1	1	2	6	0	3	n/a	1_2.gif
244.003	1	3	2	6	0	2	n/a	3_2.gif
245.003	1	1	2	1	0.371	1	1	1_2.gif
246.003	1	3	2	6	0	3	n/a	3_2.gif
247.003	1	1	2	6	0	1	n/a	1_2.gif
248.003	1	3	2	3	0.846	3	1	3_2.gif
249.003	1	2	2	3	0.007	1	0	2_2.gif
250.003	1	3	2	6	0	3	n/a	3_2.gif
251.003	1	2	2	2	0.276	2	1	2_2.gif
252.003	1	3	2	6	0	3	n/a	3_2.gif
253.003	1	2	2	6	0	2	n/a	2_2.gif
254.003	1	4	2	4	0.315	3	0	4_2.gif
255.003	1	3	2	6	0	2	n/a	3_2.gif
