onset	duration	nback_display	trial_type	response	response_time	correct_response	correct	stim_file
0	1	2	0	2	0.675	2	1	2_0.gif
1	1	1	0	1	0.452	1	1	1_0.gif
2	1	4	0	4	0.419	4	1	4_0.gif
3	1	2	0	2	0.36	2	1	2_0.gif
4	1	1	0	1	0.313	1	1	1_0.gif
5	1	2	0	2	0.324	2	1	2_0.gif
6	1	3	0	3	0.361	3	1	3_0.gif
7	1	1	0	1	0.31	1	1	1_0.gif
8	1	4	0	4	0.574	4	1	4_0.gif
9	1	3	0	4	0.003	3	0	3_0.gif
10	1	1	0	3	0.003	1	0	1_0.gif
11	1	3	0	3	0.461	3	1	3_0.gif
12	1	4	0	4	0.643	4	1	4_0.gif
13	1	1	0	1	0.412	1	1	1_0.gif
14	1	4	0	4	0.558	4	1	4_0.gif
15	1	1	0	1	0.418	1	1	1_0.gif
16	1	4	2	6	0	4	n/a	4_2.gif
17	1	1	2	6	0	1	n/a	1_2.gif
18	1	3	2	4	0.242	4	1	3_2.gif
19	1	1	2	1	0.003	1	1	1_2.gif
20	1	2	2	3	0.103	3	1	2_2.gif
21	1	1	2	1	0.013	1	1	1_2.gif
22	1	4	2	2	0.009	2	1	4_2.gif
23	1	3	2	1	0.054	1	1	3_2.gif
24	1	2	2	4	0.003	4	1	2_2.gif
25	1	4	2	3	0.003	3	1	4_2.gif
26	1	1	2	2	0.003	2	1	1_2.gif
27	1	3	2	4	0.003	4	1	3_2.gif
28	1	2	2	1	0.003	1	1	2_2.gif
29	1	1	2	3	0.003	3	1	1_2.gif
30	1	4	2	2	0.198	2	1	4_2.gif
31	1	3	2	1	0.216	1	1	3_2.gif
32	1	4	0	4	0.181	4	1	4_0.gif
33	1	1	0	1	0.391	1	1	1_0.gif
34	1	3	0	3	0.295	3	1	3_0.gif
35	1	4	0	4	0.321	4	1	4_0.gif
36	1	3	0	3	0.343	3	1	3_0.gif
37	1	2	0	2	0.393	2	1	2_0.gif
38	1	1	0	1	0.325	1	1	1_0.gif
39	1	2	0	2	0.384	2	1	2_0.gif
40	1	1	0	1	0.294	1	1	1_0.gif
41	1	4	0	4	0.447	4	1	4_0.gif
42	1	1	0	1	0.413	1	1	1_0.gif
43	1	3	0	3	0.305	3	1	3_0.gif
44	1	2	0	2	0.341	2	1	2_0.gif
45	1	1	0	1	0.259	1	1	1_0.gif
46	1	4	0	4	0.459	4	1	4_0.gif
47	1	1	0	1	0.379	1	1	1_0.gif
48.001	1	4	2	6	0	4	n/a	4_2.gif
49.001	1	3	2	6	0	1	n/a	3_2.gif
50.001	1	2	2	3	0.343	4	0	2_2.gif
51.001	1	4	2	3	0.307	3	1	4_2.gif
52.001	1	2	2	2	0.003	2	1	2_2.gif
53.001	1	3	2	4	0.003	4	1	3_2.gif
54.001	1	4	2	3	0.428	2	0	4_2.gif
55.001	1	1	2	4	0.27	3	0	1_2.gif
56.001	1	2	2	1	0.333	4	0	2_2.gif
57.001	1	1	2	2	0.41	1	0	1_2.gif
58.001	1	4	2	1	0.333	2	0	4_2.gif
59.001	1	2	2	2	0.364	1	0	2_2.gif
60.001	1	4	2	4	0.72	4	1	4_2.gif
61.001	1	1	2	6	0	2	n/a	1_2.gif
62.001	1	3	2	6	0	4	n/a	3_2.gif
63.001	1	1	2	1	0.376	1	1	1_2.gif
64.001	1	2	0	3	0.365	2	0	2_0.gif
65.001	1	1	0	1	0.395	1	1	1_0.gif
66.001	1	2	0	2	0.433	2	1	2_0.gif
67.001	1	4	0	4	0.516	4	1	4_0.gif
68.001	1	2	0	2	0.539	2	1	2_0.gif
69.001	1	4	0	4	0.551	4	1	4_0.gif
70.001	1	2	0	2	0.431	2	1	2_0.gif
71.001	1	3	0	3	0.364	3	1	3_0.gif
72.001	1	4	0	4	0.461	4	1	4_0.gif
73.001	1	3	0	3	0.405	3	1	3_0.gif
74.001	1	4	0	4	0.44	4	1	4_0.gif
75.001	1	2	0	2	0.33	2	1	2_0.gif
76.001	1	3	0	3	0.419	3	1	3_0.gif
77.001	1	2	0	2	0.421	2	1	2_0.gif
78.001	1	4	0	4	0.465	4	1	4_0.gif
79.001	1	1	0	1	0.383	1	1	1_0.gif
80.001	1	4	2	6	0	4	n/a	4_2.gif
81.001	1	3	2	6	0	1	n/a	3_2.gif
82.001	1	4	2	4	0.233	4	1	4_2.gif
83.001	1	3	2	3	0.003	3	1	3_2.gif
84.001	1	4	2	4	0.041	4	1	4_2.gif
85.001	1	1	2	3	0.167	3	1	1_2.gif
86.001	1	2	2	4	0.18	4	1	2_2.gif
87.001	1	3	2	1	0.003	1	1	3_2.gif
88.001	1	1	2	2	0.032	2	1	1_2.gif
89.001	1	2	2	3	0.087	3	1	2_2.gif
90.001	1	3	2	1	0.122	1	1	3_2.gif
91.001	1	4	2	2	0.216	2	1	4_2.gif
92.001	1	3	2	3	0.18	3	1	3_2.gif
93.001	1	1	2	4	0.164	4	1	1_2.gif
94.001	1	2	2	1	0.309	3	0	2_2.gif
95.001	1	1	2	6	0	1	n/a	1_2.gif
96.002	1	4	0	4	0.708	4	1	4_0.gif
97.002	1	3	0	3	0.417	3	1	3_0.gif
98.002	1	4	0	4	0.471	4	1	4_0.gif
99.002	1	3	0	3	0.351	3	1	3_0.gif
100.002	1	1	0	1	0.489	1	1	1_0.gif
101.002	1	3	0	3	0.45	3	1	3_0.gif
102.002	1	4	0	4	0.419	4	1	4_0.gif
103.002	1	2	0	2	0.493	2	1	2_0.gif
104.002	1	3	0	3	0.294	3	1	3_0.gif
105.002	1	1	0	2	0.309	1	0	1_0.gif
106.002	1	3	0	3	0.346	3	1	3_0.gif
107.002	1	1	0	1	0.405	1	1	1_0.gif
108.002	1	3	0	3	0.303	3	1	3_0.gif
109.002	1	1	0	1	0.239	1	1	1_0.gif
110.002	1	3	0	3	0.284	3	1	3_0.gif
111.002	1	1	0	1	0.409	1	1	1_0.gif
112.002	1	3	2	3	0.268	3	1	3_2.gif
113.002	1	4	2	6	0	1	n/a	4_2.gif
114.002	1	3	2	3	0.318	3	1	3_2.gif
115.002	1	4	2	4	0.193	4	1	4_2.gif
116.002	1	3	2	3	0.434	3	1	3_2.gif
117.002	1	1	2	4	0.339	4	1	1_2.gif
118.002	1	4	2	3	0.285	3	1	4_2.gif
119.002	1	3	2	1	0.188	1	1	3_2.gif
120.002	1	2	2	4	0.197	4	1	2_2.gif
121.002	1	3	2	3	0.14	3	1	3_2.gif
122.002	1	4	2	2	0.037	2	1	4_2.gif
123.002	1	1	2	3	0.22	3	1	1_2.gif
124.002	1	4	2	4	0.116	4	1	4_2.gif
125.002	1	3	2	1	0.076	1	1	3_2.gif
126.002	1	1	2	3	0.159	4	0	1_2.gif
127.002	1	3	2	6	0	3	n/a	3_2.gif
128.003	1	4	0	3	0.09	4	0	4_0.gif
129.003	1	2	0	2	0.55	2	1	2_0.gif
130.003	1	1	0	1	0.348	1	1	1_0.gif
131.003	1	4	0	4	0.552	4	1	4_0.gif
132.003	1	3	0	3	0.365	3	1	3_0.gif
133.003	1	4	0	4	0.3	4	1	4_0.gif
134.003	1	3	0	3	0.319	3	1	3_0.gif
135.003	1	1	0	1	0.531	1	1	1_0.gif
136.003	1	2	0	2	0.361	2	1	2_0.gif
137.003	1	4	0	4	0.442	4	1	4_0.gif
138.003	1	3	0	3	0.328	3	1	3_0.gif
139.003	1	4	0	4	0.481	4	1	4_0.gif
140.003	1	3	0	3	0.377	3	1	3_0.gif
141.003	1	2	0	2	0.524	2	1	2_0.gif
142.003	1	1	0	1	0.483	1	1	1_0.gif
143.003	1	4	0	4	0.493	4	1	4_0.gif
144.003	1	3	2	3	0.408	1	0	3_2.gif
145.003	1	1	2	6	0	4	n/a	1_2.gif
146.003	1	4	2	3	0.453	3	1	4_2.gif
147.003	1	3	2	1	0.207	1	1	3_2.gif
148.003	1	4	2	4	0.077	4	1	4_2.gif
149.003	1	1	2	3	0.173	3	1	1_2.gif
150.003	1	4	2	4	0.367	4	1	4_2.gif
151.003	1	1	2	1	0.31	1	1	1_2.gif
152.003	1	2	2	4	0.376	4	1	2_2.gif
153.003	1	3	2	2	0.706	1	0	3_2.gif
154.003	1	1	2	3	0.931	2	0	1_2.gif
155.003	1	2	2	3	0.003	3	1	2_2.gif
156.003	1	1	2	2	0.211	1	0	1_2.gif
157.003	1	3	2	6	0	2	n/a	3_2.gif
158.003	1	4	2	6	0	1	n/a	4_2.gif
159.003	1	1	2	3	0.449	3	1	1_2.gif
160.003	1	4	0	4	0.225	4	1	4_0.gif
161.003	1	1	0	1	0.42	1	1	1_0.gif
162.003	1	2	0	2	0.318	2	1	2_0.gif
163.003	1	3	0	3	0.304	3	1	3_0.gif
164.003	1	2	0	2	0.368	2	1	2_0.gif
165.003	1	3	0	3	0.379	3	1	3_0.gif
166.003	1	2	0	2	0.329	2	1	2_0.gif
167.003	1	3	0	3	0.365	3	1	3_0.gif
168.003	1	1	0	1	0.431	1	1	1_0.gif
169.003	1	3	0	3	0.405	3	1	3_0.gif
170.003	1	1	0	1	0.351	1	1	1_0.gif
171.003	1	3	0	3	0.265	3	1	3_0.gif
172.003	1	1	0	1	0.36	1	1	1_0.gif
173.003	1	2	0	2	0.607	2	1	2_0.gif
174.003	1	3	0	3	0.54	3	1	3_0.gif
175.003	1	4	0	4	0.588	4	1	4_0.gif
176.004	1	3	2	6	0	3	n/a	3_2.gif
177.004	1	1	2	6	0	4	n/a	1_2.gif
178.004	1	3	2	3	0.345	3	1	3_2.gif
179.004	1	1	2	1	0.185	1	1	1_2.gif
180.004	1	4	2	3	0.449	3	1	4_2.gif
181.004	1	3	2	1	0.321	1	1	3_2.gif
182.004	1	4	2	4	0.12	4	1	4_2.gif
183.004	1	2	2	3	0.003	3	1	2_2.gif
184.004	1	4	2	4	0.068	4	1	4_2.gif
185.004	1	3	2	2	0.192	2	1	3_2.gif
186.004	1	1	2	4	0.3	4	1	1_2.gif
187.004	1	4	2	3	0.224	3	1	4_2.gif
188.004	1	1	2	1	0.209	1	1	1_2.gif
189.004	1	2	2	4	0.213	4	1	2_2.gif
190.004	1	1	2	1	0.221	1	1	1_2.gif
191.004	1	2	2	2	0.169	2	1	2_2.gif
192.004	1	3	0	1	0.169	3	0	3_0.gif
193.004	1	1	0	3	0.145	1	0	1_0.gif
194.004	1	4	0	4	0.387	4	1	4_0.gif
195.004	1	3	0	3	0.359	3	1	3_0.gif
196.004	1	1	0	1	0.335	1	1	1_0.gif
197.004	1	3	0	3	0.371	3	1	3_0.gif
198.004	1	4	0	4	0.55	4	1	4_0.gif
199.004	1	1	0	1	0.445	1	1	1_0.gif
200.004	1	4	0	4	0.44	4	1	4_0.gif
201.004	1	1	0	1	0.426	1	1	1_0.gif
202.004	1	4	0	4	0.296	4	1	4_0.gif
203.004	1	1	0	1	0.361	1	1	1_0.gif
204.004	1	3	0	3	0.454	3	1	3_0.gif
205.004	1	1	0	1	0.461	1	1	1_0.gif
206.004	1	2	0	2	0.464	2	1	2_0.gif
207.004	1	1	0	1	0.403	1	1	1_0.gif
208.004	1	4	2	6	0	2	n/a	4_2.gif
209.004	1	3	2	6	0	1	n/a	3_2.gif
210.004	1	2	2	4	0.115	4	1	2_2.gif
211.004	1	4	2	3	0.003	3	1	4_2.gif
212.004	1	1	2	4	0.168	2	0	1_2.gif
213.004	1	3	2	2	0.202	4	0	3_2.gif
214.004	1	2	2	6	0	1	n/a	2_2.gif
215.004	1	1	2	6	0	3	n/a	1_2.gif
216.004	1	4	2	2	0.286	2	1	4_2.gif
217.004	1	3	2	1	0.14	1	1	3_2.gif
218.004	1	4	2	4	0.088	4	1	4_2.gif
219.004	1	1	2	3	0.151	3	1	1_2.gif
220.004	1	3	2	4	0.094	4	1	3_2.gif
221.004	1	4	2	1	0.003	1	1	4_2.gif
222.004	1	3	2	3	0.003	3	1	3_2.gif
223.004	1	2	2	4	0.003	4	1	2_2.gif
224.005	1	1	0	3	0.003	1	0	1_0.gif
225.005	1	2	0	2	0.444	2	1	2_0.gif
226.005	1	1	0	1	0.326	1	1	1_0.gif
227.005	1	4	0	4	0.442	4	1	4_0.gif
228.005	1	1	0	1	0.447	1	1	1_0.gif
229.005	1	3	0	3	0.467	3	1	3_0.gif
230.005	1	2	0	2	0.352	2	1	2_0.gif
231.005	1	1	0	1	0.298	1	1	1_0.gif
232.005	1	4	0	4	0.338	4	1	4_0.gif
233.005	1	1	0	1	0.33	1	1	1_0.gif
234.005	1	4	0	4	0.347	4	1	4_0.gif
235.005	1	3	0	3	0.393	3	1	3_0.gif
236.005	1	2	0	2	0.406	2	1	2_0.gif
237.005	1	4	0	4	0.502	4	1	4_0.gif
238.005	1	2	0	2	0.436	2	1	2_0.gif
239.005	1	3	0	3	0.43	3	1	3_0.gif
240.005	1	4	2	6	0	2	n/a	4_2.gif
241.005	1	1	2	6	0	3	n/a	1_2.gif
242.013	1	2	2	4	0.229	4	1	2_2.gif
243.013	1	1	2	1	0.05	1	1	1_2.gif
244.013	1	4	2	2	0.003	2	1	4_2.gif
245.013	1	2	2	1	0.044	1	1	2_2.gif
246.013	1	4	2	4	0.003	4	1	4_2.gif
247.013	1	1	2	2	0.05	2	1	1_2.gif
248.013	1	3	2	4	0.076	4	1	3_2.gif
249.013	1	1	2	1	0.004	1	1	1_2.gif
250.013	1	2	2	3	0.016	3	1	2_2.gif
251.013	1	1	2	1	0.003	1	1	1_2.gif
252.013	1	2	2	2	0.004	2	1	2_2.gif
253.013	1	4	2	1	0.003	1	1	4_2.gif
254.013	1	2	2	2	0.046	2	1	2_2.gif
255.013	1	4	2	4	0.003	4	1	4_2.gif
