onset	duration	nback_display	trial_type	response	response_time	correct_response	correct	stim_file
0.002	1.5	2	0	2	0.728	2	1	2_0.gif
1.502	1.5	4	0	4	1.165	4	1	4_0.gif
3.002	1.5	2	0	4	0.008	2	0	2_0.gif
4.502	1.5	1	0	1	0.493	1	1	1_0.gif
6.002	1.5	3	0	3	0.421	3	1	3_0.gif
7.502	1.5	1	0	1	0.47	1	1	1_0.gif
9.002	1.5	4	0	4	1.038	4	1	4_0.gif
10.502	1.5	3	0	4	0.014	3	0	3_0.gif
12.002	1.5	1	0	1	0.513	1	1	1_0.gif
13.502	1.5	3	0	3	0.731	3	1	3_0.gif
15.002	1.5	4	0	4	0.813	4	1	4_0.gif
16.502	1.5	1	0	1	0.69	1	1	1_0.gif
18.002	1.5	4	0	4	0.884	4	1	4_0.gif
19.502	1.5	1	0	1	0.612	1	1	1_0.gif
21.002	1.5	4	0	4	0.763	4	1	4_0.gif
22.502	1.5	1	0	1	0.47	1	1	1_0.gif
24.003	1.5	4	2	6	0	4	n/a	4_2.gif
25.503	1.5	2	2	6	0	1	n/a	2_2.gif
27.003	1.5	4	2	4	0.455	4	1	4_2.gif
28.503	1.5	1	2	2	0.478	2	1	1_2.gif
30.003	1.5	3	2	4	0.593	4	1	3_2.gif
31.503	1.5	4	2	2	0.473	1	0	4_2.gif
33.003	1.5	3	2	3	0.485	3	1	3_2.gif
34.503	1.5	4	2	4	0.462	4	1	4_2.gif
36.003	1.5	1	2	3	0.381	3	1	1_2.gif
37.503	1.5	2	2	4	0.364	4	1	2_2.gif
39.003	1.5	3	2	1	0.357	1	1	3_2.gif
40.503	1.5	1	2	2	0.078	2	1	1_2.gif
42.003	1.5	4	2	3	0.092	3	1	4_2.gif
43.503	1.5	2	2	1	0.187	1	1	2_2.gif
45.003	1.5	3	2	4	0.217	4	1	3_2.gif
46.503	1.5	4	2	2	0.251	2	1	4_2.gif
48.004	1.5	3	0	3	0.177	3	1	3_0.gif
49.504	1.5	2	0	2	0.418	2	1	2_0.gif
51.004	1.5	4	0	4	0.734	4	1	4_0.gif
52.504	1.5	3	0	3	0.59	3	1	3_0.gif
54.004	1.5	1	0	1	0.465	1	1	1_0.gif
55.504	1.5	4	0	4	0.651	4	1	4_0.gif
57.004	1.5	1	0	1	0.584	1	1	1_0.gif
58.504	1.5	2	0	2	0.367	2	1	2_0.gif
60.004	1.5	3	0	3	0.503	3	1	3_0.gif
61.504	1.5	2	0	2	0.498	2	1	2_0.gif
63.004	1.5	4	0	4	0.734	4	1	4_0.gif
64.504	1.5	1	0	1	0.526	1	1	1_0.gif
66.004	1.5	4	0	4	0.7	4	1	4_0.gif
67.505	1.5	3	0	3	0.428	3	1	3_0.gif
69.005	1.5	2	0	2	0.466	2	1	2_0.gif
70.505	1.5	3	0	3	0.434	3	1	3_0.gif
72.006	1.5	2	2	6	0	2	n/a	2_2.gif
73.506	1.5	4	2	6	0	3	n/a	4_2.gif
75.006	1.5	2	2	2	0.337	2	1	2_2.gif
76.506	1.5	3	2	4	0.511	4	1	3_2.gif
78.006	1.5	2	2	2	0.526	2	1	2_2.gif
79.506	1.5	1	2	3	0.506	3	1	1_2.gif
81.006	1.5	3	2	2	0.553	2	1	3_2.gif
82.506	1.5	4	2	1	0.761	1	1	4_2.gif
84.006	1.5	1	2	3	0.624	3	1	1_2.gif
85.506	1.5	2	2	4	0.482	4	1	2_2.gif
87.006	1.5	1	2	1	0.635	1	1	1_2.gif
88.506	1.5	2	2	2	0.597	2	1	2_2.gif
90.006	1.5	4	2	1	0.802	1	1	4_2.gif
91.506	1.5	2	2	2	0.887	2	1	2_2.gif
93.006	1.5	1	2	4	0.809	4	1	1_2.gif
94.506	1.5	3	2	2	0.589	2	1	3_2.gif
96.008	1.5	4	0	4	1.124	4	1	4_0.gif
97.508	1.5	3	0	4	0.01	3	0	3_0.gif
99.008	1.5	4	0	4	0.615	4	1	4_0.gif
100.508	1.5	1	0	1	0.485	1	1	1_0.gif
102.008	1.5	4	0	4	0.682	4	1	4_0.gif
103.508	1.5	2	0	2	0.422	2	1	2_0.gif
105.008	1.5	3	0	3	0.389	3	1	3_0.gif
106.508	1.5	1	0	1	0.367	1	1	1_0.gif
108.008	1.5	4	0	4	0.535	4	1	4_0.gif
109.508	1.5	3	0	3	0.468	3	1	3_0.gif
111.008	1.5	2	0	2	0.392	2	1	2_0.gif
112.508	1.5	4	0	4	0.675	4	1	4_0.gif
114.008	1.5	1	0	1	0.582	1	1	1_0.gif
115.508	1.5	4	0	4	0.485	4	1	4_0.gif
117.008	1.5	1	0	1	0.58	1	1	1_0.gif
118.508	1.5	4	0	4	0.521	4	1	4_0.gif
120.009	1.5	3	2	3	0.963	1	0	3_2.gif
121.509	1.5	4	2	6	0	4	n/a	4_2.gif
123.009	1.5	2	2	3	0.674	3	1	2_2.gif
124.509	1.5	4	2	4	0.527	4	1	4_2.gif
126.009	1.5	2	2	2	0.635	2	1	2_2.gif
127.509	1.5	4	2	4	0.425	4	1	4_2.gif
129.009	1.5	1	2	2	0.559	2	1	1_2.gif
130.509	1.5	2	2	4	0.562	4	1	2_2.gif
132.009	1.5	4	2	1	0.545	1	1	4_2.gif
133.509	1.5	1	2	2	0.146	2	1	1_2.gif
135.009	1.5	2	2	4	0.2	4	1	2_2.gif
136.509	1.5	3	2	1	0.01	1	1	3_2.gif
138.009	1.5	2	2	2	0.01	2	1	2_2.gif
139.509	1.5	3	2	3	0.009	3	1	3_2.gif
141.009	1.5	2	2	2	0.287	2	1	2_2.gif
142.509	1.5	4	2	3	0.055	3	1	4_2.gif
144.01	1.5	3	0	2	0.009	3	0	3_0.gif
145.51	1.5	4	0	3	0.011	4	0	4_0.gif
147.01	1.5	2	0	2	0.47	2	1	2_0.gif
148.51	1.5	1	0	1	0.367	1	1	1_0.gif
150.01	1.5	3	0	3	0.452	3	1	3_0.gif
151.51	1.5	4	0	4	0.486	4	1	4_0.gif
153.01	1.5	3	0	3	0.446	3	1	3_0.gif
154.51	1.5	4	0	4	0.699	4	1	4_0.gif
156.01	1.5	3	0	3	0.556	3	1	3_0.gif
157.51	1.5	1	0	1	0.575	1	1	1_0.gif
159.01	1.5	3	0	3	0.491	3	1	3_0.gif
160.51	1.5	1	0	1	0.467	1	1	1_0.gif
162.01	1.5	4	0	4	0.628	4	1	4_0.gif
163.51	1.5	1	0	1	0.511	1	1	1_0.gif
165.01	1.5	2	0	2	0.474	2	1	2_0.gif
166.51	1.5	4	0	4	0.661	4	1	4_0.gif
168.011	1.5	1	2	6	0	2	n/a	1_2.gif
169.511	1.5	4	2	6	0	4	n/a	4_2.gif
171.011	1.5	3	2	1	0.345	1	1	3_2.gif
172.511	1.5	1	2	4	0.36	4	1	1_2.gif
174.011	1.5	2	2	3	0.468	3	1	2_2.gif
175.511	1.5	4	2	1	0.406	1	1	4_2.gif
177.011	1.5	2	2	2	0.353	2	1	2_2.gif
178.511	1.5	3	2	4	0.133	4	1	3_2.gif
180.011	1.5	2	2	2	0.235	2	1	2_2.gif
181.511	1.5	4	2	3	0.182	3	1	4_2.gif
183.011	1.5	2	2	2	0.061	2	1	2_2.gif
184.511	1.5	4	2	4	0.01	4	1	4_2.gif
186.011	1.5	2	2	2	0.24	2	1	2_2.gif
187.511	1.5	3	2	4	0.435	4	1	3_2.gif
189.011	1.5	4	2	2	0.28	2	1	4_2.gif
190.511	1.5	1	2	3	0.137	3	1	1_2.gif
192.013	1.5	3	0	4	0.171	3	0	3_0.gif
193.513	1.5	2	0	2	0.538	2	1	2_0.gif
195.013	1.5	4	0	4	0.778	4	1	4_0.gif
196.513	1.5	1	0	1	0.518	1	1	1_0.gif
198.013	1.5	3	0	3	0.575	3	1	3_0.gif
199.513	1.5	2	0	2	0.433	2	1	2_0.gif
201.013	1.5	1	0	1	0.359	1	1	1_0.gif
202.513	1.5	4	0	4	0.697	4	1	4_0.gif
204.013	1.5	1	0	1	0.57	1	1	1_0.gif
205.513	1.5	2	0	2	0.421	2	1	2_0.gif
207.013	1.5	4	0	4	0.659	4	1	4_0.gif
208.513	1.5	3	0	3	0.386	3	1	3_0.gif
210.013	1.5	1	0	1	0.389	1	1	1_0.gif
211.513	1.5	2	0	2	0.546	2	1	2_0.gif
213.013	1.5	3	0	3	0.534	3	1	3_0.gif
214.513	1.5	1	0	1	0.64	1	1	1_0.gif
216.015	1.5	2	2	2	0.445	3	0	2_2.gif
217.515	1.5	1	2	6	0	1	n/a	1_2.gif
219.015	1.5	3	2	2	0.458	2	1	3_2.gif
220.515	1.5	4	2	1	0.243	1	1	4_2.gif
222.015	1.5	1	2	3	0.338	3	1	1_2.gif
223.515	1.5	4	2	4	0.111	4	1	4_2.gif
225.015	1.5	2	2	1	0.681	1	1	2_2.gif
226.515	1.5	1	2	4	0.293	4	1	1_2.gif
228.016	1.5	2	2	2	0.518	2	1	2_2.gif
229.516	1.5	1	2	1	0.222	1	1	1_2.gif
231.017	1.5	2	2	2	0.277	2	1	2_2.gif
232.517	1.5	1	2	1	0.009	1	1	1_2.gif
234.017	1.5	3	2	2	0.034	2	1	3_2.gif
235.517	1.5	4	2	1	0.01	1	1	4_2.gif
237.017	1.5	3	2	3	0.011	3	1	3_2.gif
238.517	1.5	2	2	6	0	4	n/a	2_2.gif
240.018	1.5	3	0	3	0.992	3	1	3_0.gif
241.518	1.5	1	0	1	0.93	1	1	1_0.gif
243.018	1.5	3	0	3	0.646	3	1	3_0.gif
244.518	1.5	1	0	1	0.43	1	1	1_0.gif
246.018	1.5	3	0	3	0.383	3	1	3_0.gif
247.518	1.5	1	0	1	0.295	1	1	1_0.gif
249.018	1.5	2	0	2	0.352	2	1	2_0.gif
250.518	1.5	3	0	3	0.53	3	1	3_0.gif
252.018	1.5	4	0	4	0.845	4	1	4_0.gif
253.518	1.5	3	0	3	0.599	3	1	3_0.gif
255.018	1.5	1	0	1	0.452	1	1	1_0.gif
256.518	1.5	2	0	2	0.291	2	1	2_0.gif
258.018	1.5	1	0	1	0.572	1	1	1_0.gif
259.518	1.5	3	0	3	0.541	3	1	3_0.gif
261.018	1.5	4	0	4	0.582	4	1	4_0.gif
262.518	1.5	1	0	1	0.495	1	1	1_0.gif
264.019	1.5	3	2	6	0	4	n/a	3_2.gif
265.519	1.5	1	2	6	0	1	n/a	1_2.gif
267.019	1.5	3	2	3	0.453	3	1	3_2.gif
268.519	1.5	1	2	1	0.51	1	1	1_2.gif
270.019	1.5	2	2	3	0.563	3	1	2_2.gif
271.519	1.5	1	2	1	0.388	1	1	1_2.gif
273.019	1.5	3	2	2	0.333	2	1	3_2.gif
274.519	1.5	2	2	1	0.226	1	1	2_2.gif
276.019	1.5	4	2	3	0.009	3	1	4_2.gif
277.519	1.5	2	2	4	1.385	2	0	2_2.gif
279.019	1.5	1	2	4	0.01	4	1	1_2.gif
280.519	1.5	3	2	2	0.009	2	1	3_2.gif
282.019	1.5	1	2	3	1.367	1	0	1_2.gif
283.519	1.5	4	2	3	0.009	3	1	4_2.gif
285.019	1.5	3	2	4	0.758	1	0	3_2.gif
286.519	1.5	1	2	4	0.009	4	1	1_2.gif
288.021	1.5	3	0	3	0.808	3	1	3_0.gif
289.521	1.5	4	0	4	0.946	4	1	4_0.gif
291.021	1.5	1	0	1	0.708	1	1	1_0.gif
292.521	1.5	4	0	4	0.561	4	1	4_0.gif
294.021	1.5	1	0	1	0.705	1	1	1_0.gif
295.521	1.5	4	0	4	0.531	4	1	4_0.gif
297.021	1.5	1	0	1	0.398	1	1	1_0.gif
298.521	1.5	4	0	4	0.401	4	1	4_0.gif
300.021	1.5	2	0	2	0.474	2	1	2_0.gif
301.521	1.5	4	0	4	0.901	4	1	4_0.gif
303.021	1.5	1	0	1	0.685	1	1	1_0.gif
304.521	1.5	3	0	3	0.518	3	1	3_0.gif
306.021	1.5	4	0	4	0.723	4	1	4_0.gif
307.521	1.5	3	0	3	0.468	3	1	3_0.gif
309.021	1.5	4	0	4	0.74	4	1	4_0.gif
310.521	1.5	1	0	1	0.635	1	1	1_0.gif
312.022	1.5	2	2	6	0	4	n/a	2_2.gif
313.522	1.5	3	2	6	0	1	n/a	3_2.gif
315.022	1.5	1	2	2	0.335	2	1	1_2.gif
316.522	1.5	4	2	3	0.376	3	1	4_2.gif
318.022	1.5	2	2	1	0.29	1	1	2_2.gif
319.522	1.5	3	2	4	0.301	4	1	3_2.gif
321.022	1.5	4	2	2	0.434	2	1	4_2.gif
322.522	1.5	3	2	3	0.224	3	1	3_2.gif
324.022	1.5	2	2	6	0	4	n/a	2_2.gif
325.522	1.5	4	2	3	1.348	3	1	4_2.gif
327.022	1.5	3	2	3	0.009	2	0	3_2.gif
328.522	1.5	1	2	4	1.377	4	1	1_2.gif
330.022	1.5	4	2	4	0.008	3	0	4_2.gif
331.522	1.5	1	2	1	0.216	1	1	1_2.gif
333.022	1.5	2	2	4	0.417	4	1	2_2.gif
334.522	1.5	3	2	2	0.183	1	0	3_2.gif
336.023	1.5	2	0	2	0.817	2	1	2_0.gif
337.523	1.5	4	0	4	0.808	4	1	4_0.gif
339.023	1.5	1	0	1	0.625	1	1	1_0.gif
340.523	1.5	4	0	4	0.772	4	1	4_0.gif
342.023	1.5	3	0	3	0.542	3	1	3_0.gif
343.523	1.5	2	0	2	0.534	2	1	2_0.gif
345.023	1.5	3	0	3	0.517	3	1	3_0.gif
346.523	1.5	2	0	2	0.369	2	1	2_0.gif
348.023	1.5	4	0	3	0.293	4	0	4_0.gif
349.523	1.5	2	0	2	0.551	2	1	2_0.gif
351.023	1.5	3	0	3	0.692	3	1	3_0.gif
352.523	1.5	2	0	2	0.541	2	1	2_0.gif
354.023	1.5	1	0	1	0.685	1	1	1_0.gif
355.523	1.5	3	0	3	0.634	3	1	3_0.gif
357.023	1.5	4	0	4	0.737	4	1	4_0.gif
358.523	1.5	1	0	1	0.55	1	1	1_0.gif
360.025	1.5	2	2	6	0	4	n/a	2_2.gif
361.525	1.5	1	2	6	0	1	n/a	1_2.gif
363.025	1.5	2	2	2	0.702	2	1	2_2.gif
364.525	1.5	4	2	1	0.776	1	1	4_2.gif
366.025	1.5	2	2	2	0.71	2	1	2_2.gif
367.525	1.5	1	2	4	0.482	4	1	1_2.gif
369.025	1.5	3	2	2	0.502	2	1	3_2.gif
370.525	1.5	4	2	1	0.19	1	1	4_2.gif
372.025	1.5	3	2	3	0.26	3	1	3_2.gif
373.525	1.5	4	2	4	0.205	4	1	4_2.gif
375.025	1.5	1	2	3	0.33	3	1	1_2.gif
376.525	1.5	4	2	4	0.295	4	1	4_2.gif
378.025	1.5	2	2	1	0.352	1	1	2_2.gif
379.525	1.5	3	2	4	0.074	4	1	3_2.gif
381.025	1.5	1	2	2	0.01	2	1	1_2.gif
382.525	1.5	4	2	3	0.01	3	1	4_2.gif
