onset	duration	nback_display	trial_type	response	response_time	correct_response	correct	stim_file
0	1	3	0	3	0.685	3	1	3_0.gif
1	1	2	0	2	0.441	2	1	2_0.gif
2	1	1	0	1	0.323	1	1	1_0.gif
3	1	3	0	3	0.526	3	1	3_0.gif
4	1	2	0	2	0.279	2	1	2_0.gif
5	1	3	0	3	0.527	3	1	3_0.gif
6	1	2	0	2	0.437	2	1	2_0.gif
7	1	4	0	4	0.448	4	1	4_0.gif
8	1	1	0	1	0.396	1	1	1_0.gif
9	1	2	0	2	0.341	2	1	2_0.gif
10	1	4	0	4	0.368	4	1	4_0.gif
11	1	2	0	2	0.431	2	1	2_0.gif
12	1	1	0	1	0.421	1	1	1_0.gif
13	1	4	0	4	0.381	4	1	4_0.gif
14	1	2	0	2	0.335	2	1	2_0.gif
15	1	1	0	1	0.435	1	1	1_0.gif
16	1	3	2	6	0.435	2	1	3_2.gif
17	1	4	2	6	0.435	1	1	4_2.gif
18	1	2	2	3	0.456	3	1	2_2.gif
19	1	4	2	4	0.39	4	1	4_2.gif
20	1	2	2	2	0.333	2	1	2_2.gif
21	1	1	2	4	0.517	4	1	1_2.gif
22	1	2	2	2	0.563	2	1	2_2.gif
23	1	4	2	1	0.466	1	1	4_2.gif
24	1	1	2	2	0.442	2	1	1_2.gif
25	1	2	2	4	0.525	4	1	2_2.gif
26	1	1	2	1	0.895	1	1	1_2.gif
27	1	4	2	1	0.003	2	0	4_2.gif
28	1	1	2	2	0.003	1	0	1_2.gif
29	1	2	2	6	0.003	4	0	2_2.gif
30	1	4	2	6	0.003	1	0	4_2.gif
31	1	1	2	6	0.003	2	0	1_2.gif
32	1	4	0	4	0.661	4	1	4_0.gif
33	1	2	0	2	0.415	2	1	2_0.gif
34	1	3	0	3	0.345	3	1	3_0.gif
35	1	1	0	1	0.307	1	1	1_0.gif
36	1	2	0	2	0.373	2	1	2_0.gif
37	1	4	0	4	0.32	4	1	4_0.gif
38	1	1	0	1	0.507	1	1	1_0.gif
39	1	2	0	2	0.496	2	1	2_0.gif
40	1	4	0	4	0.449	4	1	4_0.gif
41	1	3	0	3	0.355	3	1	3_0.gif
42	1	1	0	1	0.408	1	1	1_0.gif
43	1	2	0	2	0.388	2	1	2_0.gif
44	1	1	0	1	0.644	1	1	1_0.gif
45	1	4	0	4	0.375	4	1	4_0.gif
46	1	3	0	3	0.408	3	1	3_0.gif
47	1	4	0	4	0.444	4	1	4_0.gif
48.001	1	2	2	2	0.428	3	0	2_2.gif
49.001	1	3	2	6	0.428	4	0	3_2.gif
50.001	1	4	2	2	0.639	2	1	4_2.gif
51.001	1	1	2	6	0.639	3	1	1_2.gif
52.001	1	2	2	3	0.054	4	0	2_2.gif
53.001	1	3	2	1	0.824	1	1	3_2.gif
54.001	1	2	2	1	0.003	2	0	2_2.gif
55.001	1	1	2	2	0.122	3	0	1_2.gif
56.001	1	3	2	3	0.266	2	0	3_2.gif
57.001	1	1	2	2	0.26	1	0	1_2.gif
58.001	1	3	2	1	0.234	3	0	3_2.gif
59.001	1	2	2	3	0.308	1	0	2_2.gif
60.001	1	4	2	6	0.308	3	0	4_2.gif
61.001	1	2	2	2	0.492	2	1	2_2.gif
62.001	1	3	2	2	0.787	4	0	3_2.gif
63.001	1	2	2	4	0.771	2	0	2_2.gif
64.001	1	1	0	1	0.918	1	1	1_0.gif
65.001	1	4	0	1	0.004	4	0	4_0.gif
66.001	1	3	0	3	0.491	3	1	3_0.gif
67.001	1	4	0	4	0.515	4	1	4_0.gif
68.001	1	1	0	1	0.5	1	1	1_0.gif
69.001	1	4	0	4	0.423	4	1	4_0.gif
70.001	1	1	0	1	0.657	1	1	1_0.gif
71.001	1	3	0	3	0.512	3	1	3_0.gif
72.001	1	2	0	2	0.32	2	1	2_0.gif
73.001	1	1	0	1	0.364	1	1	1_0.gif
74.001	1	3	0	3	0.398	3	1	3_0.gif
75.001	1	1	0	1	0.433	1	1	1_0.gif
76.001	1	4	0	4	0.324	4	1	4_0.gif
77.001	1	1	0	1	0.358	1	1	1_0.gif
78.001	1	4	0	4	0.383	4	1	4_0.gif
79.001	1	3	0	3	0.421	3	1	3_0.gif
80.002	1	4	2	6	0.421	4	1	4_2.gif
81.002	1	1	2	6	0.421	3	1	1_2.gif
82.002	1	2	2	4	0.551	4	1	2_2.gif
83.002	1	3	2	1	0.504	1	1	3_2.gif
84.002	1	4	2	2	0.404	2	1	4_2.gif
85.002	1	2	2	3	0.408	3	1	2_2.gif
86.002	1	3	2	4	0.296	4	1	3_2.gif
87.002	1	2	2	2	0.292	2	1	2_2.gif
88.002	1	1	2	3	0.343	3	1	1_2.gif
89.002	1	4	2	2	0.307	2	1	4_2.gif
90.002	1	2	2	1	0.322	1	1	2_2.gif
91.002	1	3	2	4	0.355	4	1	3_2.gif
92.002	1	2	2	2	0.309	2	1	2_2.gif
93.002	1	1	2	3	0.431	3	1	1_2.gif
94.002	1	4	2	2	0.688	2	1	4_2.gif
95.002	1	1	2	1	0.849	1	1	1_2.gif
96.003	1	4	0	1	0.002	4	0	4_0.gif
97.003	1	1	0	4	0.184	1	0	1_0.gif
98.003	1	2	0	2	0.535	2	1	2_0.gif
99.003	1	1	0	1	0.406	1	1	1_0.gif
100.003	1	3	0	3	0.297	3	1	3_0.gif
101.003	1	1	0	1	0.466	1	1	1_0.gif
102.003	1	3	0	3	0.512	3	1	3_0.gif
103.003	1	2	0	2	0.473	2	1	2_0.gif
104.003	1	4	0	4	0.385	4	1	4_0.gif
105.003	1	2	0	2	0.429	2	1	2_0.gif
106.003	1	4	0	4	0.466	4	1	4_0.gif
107.003	1	2	0	2	0.454	2	1	2_0.gif
108.003	1	4	0	4	0.418	4	1	4_0.gif
109.003	1	2	0	2	0.428	2	1	2_0.gif
110.003	1	1	0	1	0.402	1	1	1_0.gif
111.003	1	4	0	4	0.413	4	1	4_0.gif
112.003	1	2	2	6	0.413	1	1	2_2.gif
113.003	1	1	2	6	0.413	4	1	1_2.gif
114.003	1	4	2	6	0.413	2	1	4_2.gif
115.003	1	2	2	6	0.413	1	1	2_2.gif
116.003	1	3	2	1	0.061	4	0	3_2.gif
117.003	1	4	2	4	0.003	2	0	4_2.gif
118.003	1	1	2	6	0.003	3	0	1_2.gif
119.003	1	2	2	4	0.653	4	1	2_2.gif
120.003	1	1	2	1	0.854	1	1	1_2.gif
121.003	1	4	2	1	0.003	2	0	4_2.gif
122.003	1	2	2	2	0.003	1	0	2_2.gif
123.003	1	4	2	4	0.207	4	1	4_2.gif
124.003	1	3	2	2	0.463	2	1	3_2.gif
125.003	1	2	2	6	0.463	4	1	2_2.gif
126.003	1	1	2	3	0.367	3	1	1_2.gif
127.003	1	2	2	6	0.367	2	1	2_2.gif
128.003	1	4	0	4	0.579	4	1	4_0.gif
129.003	1	1	0	1	0.509	1	1	1_0.gif
130.003	1	4	0	4	0.376	4	1	4_0.gif
131.003	1	1	0	1	0.368	1	1	1_0.gif
132.003	1	2	0	2	0.443	2	1	2_0.gif
133.003	1	4	0	4	0.403	4	1	4_0.gif
134.003	1	3	0	3	0.457	3	1	3_0.gif
135.003	1	1	0	1	0.453	1	1	1_0.gif
136.003	1	4	0	4	0.365	4	1	4_0.gif
137.003	1	2	0	2	0.356	2	1	2_0.gif
138.003	1	4	0	4	0.454	4	1	4_0.gif
139.003	1	3	0	3	0.402	3	1	3_0.gif
140.003	1	2	0	2	0.419	2	1	2_0.gif
141.003	1	1	0	1	0.376	1	1	1_0.gif
142.003	1	4	0	4	0.313	4	1	4_0.gif
143.003	1	2	0	2	0.472	2	1	2_0.gif
144.004	1	1	2	1	0.431	4	0	1_2.gif
145.004	1	4	2	6	0.431	2	0	4_2.gif
146.004	1	1	2	1	0.767	1	1	1_2.gif
147.004	1	2	2	4	0.693	4	1	2_2.gif
148.004	1	1	2	1	0.787	1	1	1_2.gif
149.004	1	3	2	2	0.714	2	1	3_2.gif
150.004	1	4	2	1	0.838	1	1	4_2.gif
151.004	1	2	2	1	0.003	3	0	2_2.gif
152.004	1	3	2	3	0.003	4	0	3_2.gif
153.004	1	4	2	2	0.849	2	1	4_2.gif
154.004	1	2	2	2	0.003	3	0	2_2.gif
155.004	1	3	2	3	0.389	4	0	3_2.gif
156.004	1	2	2	6	0.389	2	0	2_2.gif
157.004	1	3	2	6	0.389	3	0	3_2.gif
158.004	1	1	2	2	0.524	2	1	1_2.gif
159.004	1	2	2	3	0.446	3	1	2_2.gif
160.005	1	1	0	1	0.464	1	1	1_0.gif
161.005	1	4	0	4	0.595	4	1	4_0.gif
162.005	1	1	0	1	0.644	1	1	1_0.gif
163.005	1	3	0	3	0.502	3	1	3_0.gif
164.005	1	2	0	2	0.498	2	1	2_0.gif
165.005	1	3	0	3	0.474	3	1	3_0.gif
166.005	1	2	0	2	0.38	2	1	2_0.gif
167.005	1	4	0	4	0.379	4	1	4_0.gif
168.005	1	1	0	1	0.323	1	1	1_0.gif
169.005	1	3	0	3	0.354	3	1	3_0.gif
170.005	1	1	0	1	0.482	1	1	1_0.gif
171.005	1	2	0	2	0.504	2	1	2_0.gif
172.005	1	3	0	3	0.352	3	1	3_0.gif
173.005	1	4	0	4	0.294	4	1	4_0.gif
174.005	1	1	0	1	0.356	1	1	1_0.gif
175.005	1	4	0	4	0.429	4	1	4_0.gif
176.005	1	2	2	2	0.333	1	0	2_2.gif
177.005	1	3	2	6	0.333	4	0	3_2.gif
178.005	1	2	2	2	0.446	2	1	2_2.gif
179.005	1	3	2	3	0.316	3	1	3_2.gif
180.005	1	4	2	2	0.475	2	1	4_2.gif
181.005	1	1	2	6	0.475	3	1	1_2.gif
182.005	1	3	2	4	0.287	4	1	3_2.gif
183.005	1	1	2	1	0.393	1	1	1_2.gif
184.005	1	4	2	3	0.271	3	1	4_2.gif
185.005	1	1	2	4	0.523	1	0	1_2.gif
186.005	1	2	2	6	0.523	4	0	2_2.gif
187.005	1	1	2	1	0.293	1	1	1_2.gif
188.005	1	3	2	6	0.293	2	1	3_2.gif
189.005	1	2	2	6	0.293	1	1	2_2.gif
190.005	1	4	2	6	0.293	3	1	4_2.gif
191.005	1	3	2	6	0.293	2	1	3_2.gif
192.006	1	2	0	2	0.669	2	1	2_0.gif
193.006	1	1	0	1	0.799	1	1	1_0.gif
194.006	1	3	0	3	0.405	3	1	3_0.gif
195.006	1	2	0	2	0.299	2	1	2_0.gif
196.006	1	3	0	3	0.371	3	1	3_0.gif
197.006	1	2	0	2	0.429	2	1	2_0.gif
198.006	1	4	0	4	0.371	4	1	4_0.gif
199.006	1	1	0	1	0.384	1	1	1_0.gif
200.006	1	2	0	2	0.436	2	1	2_0.gif
201.006	1	4	0	4	0.401	4	1	4_0.gif
202.006	1	2	0	2	0.378	2	1	2_0.gif
203.006	1	1	0	1	0.343	1	1	1_0.gif
204.006	1	4	0	4	0.314	4	1	4_0.gif
205.006	1	2	0	2	0.415	2	1	2_0.gif
206.006	1	1	0	1	0.394	1	1	1_0.gif
207.006	1	3	0	3	0.382	3	1	3_0.gif
208.006	1	4	2	6	0.382	1	1	4_2.gif
209.006	1	2	2	6	0.382	3	1	2_2.gif
210.006	1	4	2	6	0.382	4	1	4_2.gif
211.006	1	2	2	4	0.258	2	0	2_2.gif
212.006	1	1	2	2	0.386	4	0	1_2.gif
213.006	1	2	2	4	0.38	2	0	2_2.gif
214.006	1	4	2	1	0.531	1	1	4_2.gif
215.006	1	1	2	2	0.645	2	1	1_2.gif
216.006	1	2	2	4	0.705	4	1	2_2.gif
217.006	1	1	2	1	0.861	1	1	1_2.gif
218.006	1	4	2	1	0.003	2	0	4_2.gif
219.006	1	1	2	2	0.003	1	0	1_2.gif
220.006	1	2	2	4	0.04	4	1	2_2.gif
221.006	1	4	2	1	0.254	1	1	4_2.gif
222.006	1	1	2	2	0.575	2	1	1_2.gif
223.006	1	4	2	4	0.599	4	1	4_2.gif
224.006	1	2	0	2	0.61	2	1	2_0.gif
225.006	1	3	0	3	0.536	3	1	3_0.gif
226.006	1	1	0	1	0.568	1	1	1_0.gif
227.006	1	2	0	2	0.681	2	1	2_0.gif
228.006	1	4	0	4	0.581	4	1	4_0.gif
229.006	1	1	0	1	0.542	1	1	1_0.gif
230.006	1	2	0	2	0.421	2	1	2_0.gif
231.006	1	4	0	4	0.429	4	1	4_0.gif
232.006	1	3	0	3	0.514	3	1	3_0.gif
233.006	1	1	0	1	0.424	1	1	1_0.gif
234.006	1	2	0	2	0.374	2	1	2_0.gif
235.006	1	1	0	1	0.482	1	1	1_0.gif
236.006	1	4	0	4	0.507	4	1	4_0.gif
237.006	1	3	0	3	0.667	3	1	3_0.gif
238.006	1	4	0	6	0.667	4	1	4_0.gif
239.006	1	2	0	4	0.188	2	0	2_0.gif
240.007	1	3	2	6	0.188	4	0	3_2.gif
241.007	1	4	2	6	0.188	2	0	4_2.gif
242.007	1	1	2	3	0.381	3	1	1_2.gif
243.007	1	2	2	4	0.213	4	1	2_2.gif
244.007	1	3	2	1	0.247	1	1	3_2.gif
245.007	1	2	2	2	0.164	2	1	2_2.gif
246.007	1	1	2	3	0.339	3	1	1_2.gif
247.007	1	3	2	2	0.243	2	1	3_2.gif
248.007	1	1	2	1	0.273	1	1	1_2.gif
249.007	1	3	2	3	0.293	3	1	3_2.gif
250.007	1	2	2	1	0.549	1	1	2_2.gif
251.007	1	4	2	3	0.544	3	1	4_2.gif
252.007	1	2	2	2	0.319	2	1	2_2.gif
253.007	1	3	2	4	0.153	4	1	3_2.gif
254.007	1	2	2	2	0.231	2	1	2_2.gif
255.007	1	1	2	3	0.25	3	1	1_2.gif
