onset	duration	nback_display	trial_type	response	response_time	correct_response	correct	stim_file
0	1	2	0	2	0.856	2	1	2_0.gif
1	1	1	0	2	0.003	1	0	1_0.gif
2	1	4	0	4	0.58	4	1	4_0.gif
3	1	1	0	1	0.524	1	1	1_0.gif
4	1	2	0	2	0.372	2	1	2_0.gif
5	1	3	0	3	0.456	3	1	3_0.gif
6	1	1	0	1	0.406	1	1	1_0.gif
7	1	3	0	3	0.502	3	1	3_0.gif
8	1	1	0	1	0.402	1	1	1_0.gif
9	1	3	0	3	0.418	3	1	3_0.gif
10	1	4	0	4	0.557	4	1	4_0.gif
11	1	1	0	1	0.512	1	1	1_0.gif
12	1	4	0	4	0.509	4	1	4_0.gif
13	1	1	0	1	0.405	1	1	1_0.gif
14	1	4	0	4	0.339	4	1	4_0.gif
15	1	2	0	2	0.471	2	1	2_0.gif
16	1	1	2	1	0.731	4	0	1_2.gif
17	1	3	2	6	0	2	n/a	3_2.gif
18	1	2	2	1	0.735	1	1	2_2.gif
19	1	3	2	3	0.285	3	1	3_2.gif
20	1	4	2	2	0.178	2	1	4_2.gif
21	1	2	2	3	0.149	3	1	2_2.gif
22	1	3	2	4	0.221	4	1	3_2.gif
23	1	1	2	2	0.197	2	1	1_2.gif
24	1	4	2	3	0.164	3	1	4_2.gif
25	1	3	2	1	0.202	1	1	3_2.gif
26	1	4	2	4	0.129	4	1	4_2.gif
27	1	1	2	3	0.054	3	1	1_2.gif
28	1	3	2	4	0.13	4	1	3_2.gif
29	1	4	2	1	0.052	1	1	4_2.gif
30	1	1	2	3	0.192	3	1	1_2.gif
31	1	2	2	4	0.247	4	1	2_2.gif
32	1	1	0	1	0.265	1	1	1_0.gif
33	1	2	0	2	0.426	2	1	2_0.gif
34	1	3	0	3	0.354	3	1	3_0.gif
35	1	1	0	1	0.383	1	1	1_0.gif
36	1	2	0	2	0.385	2	1	2_0.gif
37	1	4	0	4	0.383	4	1	4_0.gif
38	1	1	0	1	0.459	1	1	1_0.gif
39	1	4	0	4	0.381	4	1	4_0.gif
40	1	2	0	2	0.435	2	1	2_0.gif
41	1	4	0	4	0.377	4	1	4_0.gif
42	1	3	0	3	0.37	3	1	3_0.gif
43	1	2	0	2	0.52	2	1	2_0.gif
44	1	4	0	4	0.444	4	1	4_0.gif
45	1	1	0	1	0.466	1	1	1_0.gif
46	1	2	0	2	0.374	2	1	2_0.gif
47	1	1	0	1	0.399	1	1	1_0.gif
48	1	3	2	6	0	2	n/a	3_2.gif
49	1	4	2	6	0	1	n/a	4_2.gif
50	1	2	2	3	0.293	3	1	2_2.gif
51	1	1	2	4	0.362	4	1	1_2.gif
52	1	2	2	2	0.431	2	1	2_2.gif
53	1	1	2	1	0.317	1	1	1_2.gif
54	1	2	2	2	0.314	2	1	2_2.gif
55	1	1	2	1	0.321	1	1	1_2.gif
56	1	2	2	2	0.41	2	1	2_2.gif
57	1	1	2	1	0.405	1	1	1_2.gif
58	1	3	2	2	0.519	2	1	3_2.gif
59	1	1	2	1	0.441	1	1	1_2.gif
60	1	3	2	3	0.327	3	1	3_2.gif
61	1	4	2	1	0.335	1	1	4_2.gif
62	1	3	2	3	0.357	3	1	3_2.gif
63	1	4	2	1	0.266	4	0	4_2.gif
64.001	1	2	0	4	0.368	2	0	2_0.gif
65.001	1	3	0	3	0.425	3	1	3_0.gif
66.001	1	4	0	4	0.382	4	1	4_0.gif
67.001	1	2	0	2	0.384	2	1	2_0.gif
68.001	1	3	0	3	0.34	3	1	3_0.gif
69.001	1	4	0	4	0.426	4	1	4_0.gif
70.001	1	3	0	3	0.389	3	1	3_0.gif
71.001	1	4	0	4	0.368	4	1	4_0.gif
72.001	1	1	0	1	0.441	1	1	1_0.gif
73.001	1	2	0	2	0.404	2	1	2_0.gif
74.001	1	3	0	3	0.352	3	1	3_0.gif
75.001	1	1	0	1	0.396	1	1	1_0.gif
76.001	1	3	0	3	0.448	3	1	3_0.gif
77.001	1	4	0	4	0.352	4	1	4_0.gif
78.001	1	2	0	2	0.36	2	1	2_0.gif
79.001	1	3	0	3	0.335	3	1	3_0.gif
80.001	1	2	2	2	0.447	2	1	2_2.gif
81.001	1	3	2	6	0	3	n/a	3_2.gif
82.001	1	1	2	2	0.278	2	1	1_2.gif
83.001	1	3	2	3	0.304	3	1	3_2.gif
84.001	1	1	2	1	0.305	1	1	1_2.gif
85.001	1	2	2	3	0.274	3	1	2_2.gif
86.001	1	1	2	1	0.332	1	1	1_2.gif
87.001	1	3	2	2	0.3	2	1	3_2.gif
88.001	1	1	2	1	0.363	1	1	1_2.gif
89.001	1	3	2	3	0.274	3	1	3_2.gif
90.001	1	4	2	1	0.243	1	1	4_2.gif
91.001	1	3	2	3	0.231	3	1	3_2.gif
92.001	1	2	2	4	0.26	4	1	2_2.gif
93.001	1	3	2	3	0.262	3	1	3_2.gif
94.001	1	4	2	2	0.172	2	1	4_2.gif
95.001	1	1	2	3	0.264	3	1	1_2.gif
96.001	1	4	0	1	0.344	4	0	4_0.gif
97.001	1	1	0	1	0.552	1	1	1_0.gif
98.001	1	4	0	4	0.46	4	1	4_0.gif
99.001	1	1	0	1	0.369	1	1	1_0.gif
100.001	1	3	0	3	0.391	3	1	3_0.gif
101.001	1	1	0	1	0.422	1	1	1_0.gif
102.001	1	3	0	3	0.314	3	1	3_0.gif
103.001	1	4	0	4	0.332	4	1	4_0.gif
104.001	1	3	0	3	0.385	3	1	3_0.gif
105.001	1	1	0	1	0.383	1	1	1_0.gif
106.001	1	3	0	3	0.357	3	1	3_0.gif
107.001	1	1	0	1	0.356	1	1	1_0.gif
108.001	1	4	0	4	0.453	4	1	4_0.gif
109.001	1	1	0	1	0.56	1	1	1_0.gif
110.001	1	3	0	3	0.518	3	1	3_0.gif
111.001	1	2	0	2	0.561	2	1	2_0.gif
112.001	1	3	2	3	0.463	3	1	3_2.gif
113.001	1	4	2	6	0	2	n/a	4_2.gif
114.001	1	1	2	3	0.28	3	1	1_2.gif
115.001	1	2	2	4	0.316	4	1	2_2.gif
116.001	1	3	2	1	0.401	1	1	3_2.gif
117.001	1	4	2	2	0.521	2	1	4_2.gif
118.001	1	1	2	3	0.267	3	1	1_2.gif
119.001	1	4	2	4	0.266	4	1	4_2.gif
120.001	1	3	2	1	0.259	1	1	3_2.gif
121.001	1	2	2	4	0.21	4	1	2_2.gif
122.001	1	4	2	1	0.227	3	0	4_2.gif
123.001	1	2	2	3	0.022	2	0	2_2.gif
124.001	1	3	2	6	0	4	n/a	3_2.gif
125.001	1	2	2	6	0	2	n/a	2_2.gif
126.001	1	1	2	3	0.343	3	1	1_2.gif
127.001	1	3	2	2	0.288	2	1	3_2.gif
128.002	1	4	0	4	0.787	4	1	4_0.gif
129.002	1	1	0	4	0.003	1	0	1_0.gif
130.002	1	2	0	2	0.443	2	1	2_0.gif
131.002	1	3	0	3	0.331	3	1	3_0.gif
132.002	1	4	0	4	0.396	4	1	4_0.gif
133.002	1	3	0	3	0.346	3	1	3_0.gif
134.002	1	1	0	1	0.456	1	1	1_0.gif
135.002	1	4	0	4	0.382	4	1	4_0.gif
136.002	1	3	0	3	0.389	3	1	3_0.gif
137.002	1	1	0	1	0.436	1	1	1_0.gif
138.002	1	4	0	4	0.291	4	1	4_0.gif
139.002	1	1	0	1	0.337	1	1	1_0.gif
140.002	1	3	0	3	0.357	3	1	3_0.gif
141.002	1	1	0	1	0.367	1	1	1_0.gif
142.002	1	2	0	2	0.509	2	1	2_0.gif
143.002	1	3	0	3	0.312	3	1	3_0.gif
144.002	1	1	2	6	0	2	n/a	1_2.gif
145.002	1	2	2	6	0	3	n/a	2_2.gif
146.002	1	1	2	1	0.316	1	1	1_2.gif
147.002	1	3	2	2	0.337	2	1	3_2.gif
148.002	1	4	2	1	0.29	1	1	4_2.gif
149.002	1	1	2	3	0.241	3	1	1_2.gif
150.002	1	4	2	4	0.224	4	1	4_2.gif
151.002	1	2	2	1	0.215	1	1	2_2.gif
152.002	1	1	2	4	0.211	4	1	1_2.gif
153.002	1	4	2	2	0.228	2	1	4_2.gif
154.002	1	2	2	1	0.292	1	1	2_2.gif
155.002	1	4	2	4	0.276	4	1	4_2.gif
156.002	1	3	2	2	0.279	2	1	3_2.gif
157.002	1	4	2	4	0.215	4	1	4_2.gif
158.002	1	1	2	3	0.268	3	1	1_2.gif
159.002	1	2	2	4	0.239	4	1	2_2.gif
160.002	1	3	0	1	0.184	3	0	3_0.gif
161.002	1	1	0	3	0.003	1	0	1_0.gif
162.002	1	3	0	3	0.433	3	1	3_0.gif
163.002	1	1	0	1	0.359	1	1	1_0.gif
164.002	1	3	0	3	0.28	3	1	3_0.gif
165.002	1	1	0	1	0.341	1	1	1_0.gif
166.002	1	2	0	2	0.436	2	1	2_0.gif
167.002	1	3	0	3	0.373	3	1	3_0.gif
168.002	1	4	0	4	0.397	4	1	4_0.gif
169.002	1	3	0	3	0.421	3	1	3_0.gif
170.002	1	1	0	1	0.363	1	1	1_0.gif
171.002	1	4	0	4	0.373	4	1	4_0.gif
172.002	1	1	0	1	0.359	1	1	1_0.gif
173.002	1	2	0	2	0.557	2	1	2_0.gif
174.002	1	4	0	4	0.386	4	1	4_0.gif
175.002	1	2	0	2	0.489	2	1	2_0.gif
176.002	1	1	2	6	0	4	n/a	1_2.gif
177.002	1	3	2	6	0	2	n/a	3_2.gif
178.002	1	1	2	1	0.37	1	1	1_2.gif
179.002	1	3	2	3	0.303	3	1	3_2.gif
180.002	1	2	2	1	0.286	1	1	2_2.gif
181.002	1	1	2	3	0.42	3	1	1_2.gif
182.002	1	3	2	2	0.365	2	1	3_2.gif
183.002	1	2	2	1	0.316	1	1	2_2.gif
184.002	1	1	2	3	0.453	3	1	1_2.gif
185.002	1	4	2	2	0.745	2	1	4_2.gif
186.002	1	1	2	1	0.266	1	1	1_2.gif
187.002	1	2	2	4	0.021	4	1	2_2.gif
188.002	1	3	2	1	0.056	1	1	3_2.gif
189.002	1	1	2	2	0.003	2	1	1_2.gif
190.002	1	3	2	3	0.003	3	1	3_2.gif
191.002	1	1	2	1	0.003	1	1	1_2.gif
192.002	1	3	0	3	0.004	3	1	3_0.gif
193.002	1	4	0	4	0.341	4	1	4_0.gif
194.002	1	1	0	1	0.394	1	1	1_0.gif
195.002	1	4	0	4	0.369	4	1	4_0.gif
196.002	1	1	0	1	0.354	1	1	1_0.gif
197.002	1	4	0	4	0.283	4	1	4_0.gif
198.002	1	2	0	2	0.359	2	1	2_0.gif
199.002	1	1	0	1	0.43	1	1	1_0.gif
200.002	1	3	0	3	0.439	3	1	3_0.gif
201.002	1	2	0	2	0.436	2	1	2_0.gif
202.002	1	3	0	3	0.381	3	1	3_0.gif
203.002	1	4	0	4	0.377	4	1	4_0.gif
204.002	1	2	0	2	0.357	2	1	2_0.gif
205.002	1	3	0	3	0.354	3	1	3_0.gif
206.002	1	1	0	1	0.408	1	1	1_0.gif
207.002	1	4	0	4	0.33	4	1	4_0.gif
208.003	1	3	2	6	0	1	n/a	3_2.gif
209.003	1	4	2	6	0	4	n/a	4_2.gif
210.003	1	1	2	3	0.353	3	1	1_2.gif
211.003	1	3	2	4	0.266	4	1	3_2.gif
212.003	1	4	2	1	0.244	1	1	4_2.gif
213.003	1	1	2	3	0.277	3	1	1_2.gif
214.003	1	2	2	4	0.302	4	1	2_2.gif
215.003	1	1	2	1	0.233	1	1	1_2.gif
216.003	1	2	2	2	0.206	2	1	2_2.gif
217.003	1	3	2	1	0.219	1	1	3_2.gif
218.003	1	1	2	2	0.333	2	1	1_2.gif
219.003	1	2	2	3	0.317	3	1	2_2.gif
220.003	1	4	2	1	0.232	1	1	4_2.gif
221.003	1	1	2	2	0.262	2	1	1_2.gif
222.003	1	4	2	4	0.307	4	1	4_2.gif
223.003	1	2	2	1	0.31	1	1	2_2.gif
224.003	1	4	0	4	0.24	4	1	4_0.gif
225.003	1	3	0	3	0.473	3	1	3_0.gif
226.003	1	2	0	2	0.351	2	1	2_0.gif
227.003	1	4	0	4	0.335	4	1	4_0.gif
228.003	1	1	0	1	0.422	1	1	1_0.gif
229.003	1	2	0	2	0.334	2	1	2_0.gif
230.003	1	1	0	1	0.387	1	1	1_0.gif
231.003	1	3	0	3	0.421	3	1	3_0.gif
232.003	1	4	0	4	0.375	4	1	4_0.gif
233.003	1	2	0	2	0.377	2	1	2_0.gif
234.003	1	1	0	1	0.362	1	1	1_0.gif
235.003	1	2	0	2	0.4	2	1	2_0.gif
236.003	1	1	0	1	0.383	1	1	1_0.gif
237.003	1	2	0	2	0.384	2	1	2_0.gif
238.003	1	1	0	1	0.302	1	1	1_0.gif
239.003	1	2	0	2	0.276	2	1	2_0.gif
240.003	1	1	2	6	0	1	n/a	1_2.gif
241.003	1	3	2	6	0	2	n/a	3_2.gif
242.003	1	1	2	1	0.4	1	1	1_2.gif
243.003	1	3	2	3	0.349	3	1	3_2.gif
244.003	1	4	2	1	0.348	1	1	4_2.gif
245.003	1	3	2	3	0.552	3	1	3_2.gif
246.003	1	4	2	4	0.586	4	1	4_2.gif
247.003	1	2	2	3	0.802	3	1	2_2.gif
248.003	1	3	2	6	0	4	n/a	3_2.gif
249.003	1	4	2	4	0.225	2	0	4_2.gif
250.003	1	2	2	2	0.203	3	0	2_2.gif
251.003	1	3	2	3	0.166	4	0	3_2.gif
252.003	1	4	2	4	0.078	2	0	4_2.gif
253.003	1	3	2	2	0.15	3	0	3_2.gif
254.003	1	4	2	3	0.197	4	0	4_2.gif
255.003	1	1	2	4	0.209	3	0	1_2.gif
