onset	duration	nback_display	trial_type	response	response_time	correct_response	correct	stim_file
0	1	3	0	3	0.944	3	1	3_0.gif
1.001	1	4	0	3	0.008	4	0	4_0.gif
2.001	1	3	0	4	0.008	3	0	3_0.gif
3.001	1	4	0	4	0.877	4	1	4_0.gif
4.001	1	3	0	4	0.008	3	0	3_0.gif
5.002	1	4	0	4	0.626	4	1	4_0.gif
6.002	1	3	0	3	0.541	3	1	3_0.gif
7.002	1	2	0	2	0.559	2	1	2_0.gif
8.002	1	1	0	1	0.53	1	1	1_0.gif
9.002	1	2	0	2	0.553	2	1	2_0.gif
10.002	1	1	0	1	0.544	1	1	1_0.gif
11.002	1	2	0	2	0.57	2	1	2_0.gif
12.002	1	1	0	1	0.582	1	1	1_0.gif
13.002	1	2	0	2	0.553	2	1	2_0.gif
14.002	1	3	0	3	0.537	3	1	3_0.gif
15.002	1	2	0	2	0.558	2	1	2_0.gif
16.002	1	4	2	6	0	3	n/a	4_2.gif
17.002	1	1	2	6	0	2	n/a	1_2.gif
18.002	1	3	2	4	0.369	4	1	3_2.gif
19.002	1	4	2	1	0.225	1	1	4_2.gif
20.002	1	1	2	3	0.146	3	1	1_2.gif
21.002	1	2	2	4	0.111	4	1	2_2.gif
22.002	1	3	2	1	0.212	1	1	3_2.gif
23.002	1	1	2	2	0.235	2	1	1_2.gif
24.002	1	2	2	3	0.234	3	1	2_2.gif
25.002	1	1	2	1	0.238	1	1	1_2.gif
26.002	1	2	2	2	0.302	2	1	2_2.gif
27.002	1	4	2	1	0.339	1	1	4_2.gif
28.002	1	2	2	2	0.23	2	1	2_2.gif
29.002	1	1	2	4	0.22	4	1	1_2.gif
30.002	1	4	2	1	0.534	2	0	4_2.gif
31.002	1	3	2	1	0.443	1	1	3_2.gif
32.003	1	4	0	4	0.477	4	1	4_0.gif
33.003	1	2	0	2	0.503	2	1	2_0.gif
34.003	1	4	0	4	0.645	4	1	4_0.gif
35.003	1	3	0	3	0.604	3	1	3_0.gif
36.003	1	2	0	2	0.705	2	1	2_0.gif
37.003	1	3	0	3	0.743	3	1	3_0.gif
38.003	1	1	0	3	0.008	1	0	1_0.gif
39.003	1	2	0	2	0.685	2	1	2_0.gif
40.003	1	3	0	3	0.478	3	1	3_0.gif
41.003	1	4	0	4	0.41	4	1	4_0.gif
42.003	1	3	0	3	0.389	3	1	3_0.gif
43.003	1	1	0	1	0.391	1	1	1_0.gif
44.003	1	2	0	2	0.313	2	1	2_0.gif
45.003	1	1	0	1	0.398	1	1	1_0.gif
46.003	1	3	0	3	0.418	3	1	3_0.gif
47.003	1	1	0	1	0.515	1	1	1_0.gif
48.004	1	3	2	6	0	3	n/a	3_2.gif
49.004	1	2	2	6	0	1	n/a	2_2.gif
50.004	1	1	2	3	0.251	3	1	1_2.gif
51.004	1	3	2	2	0.407	2	1	3_2.gif
52.004	1	4	2	1	0.508	1	1	4_2.gif
53.004	1	3	2	3	0.53	3	1	3_2.gif
54.004	1	2	2	4	0.601	4	1	2_2.gif
55.004	1	4	2	3	0.619	3	1	4_2.gif
56.004	1	2	2	2	0.518	2	1	2_2.gif
57.004	1	1	2	4	0.747	4	1	1_2.gif
58.004	1	4	2	2	0.618	2	1	4_2.gif
59.004	1	2	2	1	0.582	1	1	2_2.gif
60.004	1	4	2	4	0.637	4	1	4_2.gif
61.004	1	2	2	2	0.712	2	1	2_2.gif
62.004	1	3	2	4	0.644	4	1	3_2.gif
63.004	1	1	2	2	0.56	2	1	1_2.gif
64.004	1	3	0	3	0.543	3	1	3_0.gif
65.004	1	4	0	4	0.614	4	1	4_0.gif
66.004	1	3	0	3	0.526	3	1	3_0.gif
67.004	1	1	0	1	0.598	1	1	1_0.gif
68.004	1	4	0	4	0.648	4	1	4_0.gif
69.004	1	2	0	2	0.574	2	1	2_0.gif
70.004	1	4	0	4	0.579	4	1	4_0.gif
71.004	1	2	0	2	0.467	2	1	2_0.gif
72.004	1	1	0	1	0.436	1	1	1_0.gif
73.004	1	4	0	4	0.469	4	1	4_0.gif
74.004	1	3	0	3	0.408	3	1	3_0.gif
75.004	1	4	0	4	0.405	4	1	4_0.gif
76.004	1	2	0	2	0.376	2	1	2_0.gif
77.004	1	1	0	1	0.372	1	1	1_0.gif
78.004	1	2	0	2	0.388	2	1	2_0.gif
79.004	1	3	0	3	0.339	3	1	3_0.gif
80.004	1	1	2	6	0	2	n/a	1_2.gif
81.005	1	4	2	6	0	3	n/a	4_2.gif
82.005	1	2	2	1	0.194	1	1	2_2.gif
83.005	1	4	2	4	0.29	4	1	4_2.gif
84.005	1	1	2	2	0.236	2	1	1_2.gif
85.005	1	4	2	4	0.325	4	1	4_2.gif
86.005	1	3	2	1	0.361	1	1	3_2.gif
87.005	1	4	2	4	0.477	4	1	4_2.gif
88.005	1	2	2	3	0.406	3	1	2_2.gif
89.005	1	3	2	4	0.416	4	1	3_2.gif
90.005	1	2	2	3	0.321	2	0	2_2.gif
91.005	1	1	2	2	0.374	3	0	1_2.gif
92.005	1	2	2	3	0.35	2	0	2_2.gif
93.005	1	3	2	2	0.3	1	0	3_2.gif
94.005	1	2	2	1	0.177	2	0	2_2.gif
95.005	1	4	2	3	0.192	3	1	4_2.gif
96.005	1	3	0	2	0.33	3	0	3_0.gif
97.005	1	4	0	3	0.197	4	0	4_0.gif
98.005	1	1	0	1	0.382	1	1	1_0.gif
99.005	1	2	0	2	0.338	2	1	2_0.gif
100.005	1	1	0	1	0.443	1	1	1_0.gif
101.005	1	4	0	4	0.484	4	1	4_0.gif
102.005	1	1	0	1	0.383	1	1	1_0.gif
103.005	1	3	0	3	0.397	3	1	3_0.gif
104.005	1	1	0	1	0.342	1	1	1_0.gif
105.005	1	2	0	2	0.337	2	1	2_0.gif
106.005	1	3	0	3	0.409	3	1	3_0.gif
107.005	1	1	0	1	0.304	1	1	1_0.gif
108.005	1	2	0	2	0.453	2	1	2_0.gif
109.005	1	1	0	1	0.414	1	1	1_0.gif
110.005	1	3	0	6	0	3	n/a	3_0.gif
111.005	1	4	0	4	0.466	4	1	4_0.gif
112.005	1	2	2	6	0	3	n/a	2_2.gif
113.005	1	4	2	6	0	4	n/a	4_2.gif
114.005	1	1	2	2	0.164	2	1	1_2.gif
115.005	1	4	2	4	0.209	4	1	4_2.gif
116.005	1	2	2	1	0.261	1	1	2_2.gif
117.005	1	1	2	4	0.174	4	1	1_2.gif
118.005	1	2	2	2	0.229	2	1	2_2.gif
119.005	1	1	2	1	0.296	1	1	1_2.gif
120.005	1	2	2	2	0.317	2	1	2_2.gif
121.005	1	1	2	1	0.316	1	1	1_2.gif
122.005	1	3	2	2	0.429	2	1	3_2.gif
123.005	1	4	2	1	0.397	1	1	4_2.gif
124.005	1	1	2	3	0.347	3	1	1_2.gif
125.005	1	2	2	4	0.253	4	1	2_2.gif
126.005	1	4	2	1	0.252	1	1	4_2.gif
127.005	1	1	2	2	0.278	2	1	1_2.gif
128.006	1	4	0	4	0.257	4	1	4_0.gif
129.006	1	2	0	2	0.352	2	1	2_0.gif
130.006	1	3	0	3	0.318	3	1	3_0.gif
131.006	1	1	0	1	0.402	1	1	1_0.gif
132.006	1	2	0	2	0.411	2	1	2_0.gif
133.006	1	3	0	6	0	3	n/a	3_0.gif
134.006	1	4	0	4	0.47	4	1	4_0.gif
135.006	1	3	0	3	0.377	3	1	3_0.gif
136.006	1	1	0	1	0.403	1	1	1_0.gif
137.006	1	2	0	2	0.411	2	1	2_0.gif
138.007	1	1	0	1	0.442	1	1	1_0.gif
139.007	1	2	0	2	0.379	2	1	2_0.gif
140.007	1	1	0	1	0.413	1	1	1_0.gif
141.007	1	2	0	2	0.245	2	1	2_0.gif
142.007	1	1	0	1	0.233	1	1	1_0.gif
143.007	1	4	0	4	0.43	4	1	4_0.gif
144.007	1	2	2	3	0.03	1	0	2_2.gif
145.007	1	1	2	6	0	4	n/a	1_2.gif
146.007	1	4	2	2	0.982	2	1	4_2.gif
147.007	1	2	2	2	0.008	1	0	2_2.gif
148.007	1	1	2	1	0.009	4	0	1_2.gif
149.007	1	3	2	4	0.008	2	0	3_2.gif
150.007	1	2	2	2	0.008	1	0	2_2.gif
151.007	1	1	2	3	0.008	3	1	1_2.gif
152.007	1	2	2	2	0.689	2	1	2_2.gif
153.007	1	1	2	1	0.817	1	1	1_2.gif
154.007	1	4	2	1	0.008	2	0	4_2.gif
155.007	1	1	2	2	0.008	1	0	1_2.gif
156.007	1	3	2	4	0.599	4	1	3_2.gif
157.007	1	4	2	1	0.691	1	1	4_2.gif
158.007	1	2	2	3	0.464	3	1	2_2.gif
159.007	1	3	2	4	0.362	4	1	3_2.gif
160.007	1	4	0	6	0	4	n/a	4_0.gif
161.007	1	2	0	4	0.121	2	0	2_0.gif
162.007	1	4	0	4	0.587	4	1	4_0.gif
163.007	1	2	0	6	0	2	n/a	2_0.gif
164.007	1	4	0	4	0.524	4	1	4_0.gif
165.007	1	1	0	1	0.538	1	1	1_0.gif
166.007	1	2	0	2	0.457	2	1	2_0.gif
167.007	1	1	0	1	0.485	1	1	1_0.gif
168.007	1	4	0	4	0.6	4	1	4_0.gif
169.007	1	2	0	2	0.427	2	1	2_0.gif
170.007	1	3	0	3	0.392	3	1	3_0.gif
171.007	1	2	0	2	0.361	2	1	2_0.gif
172.007	1	3	0	3	0.347	3	1	3_0.gif
173.007	1	4	0	4	0.533	4	1	4_0.gif
174.007	1	3	0	3	0.464	3	1	3_0.gif
175.007	1	4	0	4	0.449	4	1	4_0.gif
176.008	1	2	2	2	0.417	3	0	2_2.gif
177.008	1	3	2	6	0	4	n/a	3_2.gif
178.008	1	1	2	2	0.34	2	1	1_2.gif
179.008	1	2	2	3	0.381	3	1	2_2.gif
180.008	1	4	2	1	0.265	1	1	4_2.gif
181.008	1	3	2	2	0.278	2	1	3_2.gif
182.008	1	4	2	4	0.299	4	1	4_2.gif
183.008	1	2	2	3	0.255	3	1	2_2.gif
184.008	1	3	2	4	0.076	4	1	3_2.gif
185.008	1	4	2	2	0.142	2	1	4_2.gif
186.008	1	1	2	3	0.104	3	1	1_2.gif
187.008	1	4	2	4	0.194	4	1	4_2.gif
188.008	1	3	2	1	0.212	1	1	3_2.gif
189.008	1	2	2	4	0.264	4	1	2_2.gif
190.008	1	1	2	3	0.204	3	1	1_2.gif
191.008	1	3	2	2	0.169	2	1	3_2.gif
192.009	1	4	0	1	0.222	4	0	4_0.gif
193.009	1	2	0	4	0.222	2	0	2_0.gif
194.009	1	1	0	1	0.397	1	1	1_0.gif
195.009	1	2	0	2	0.456	2	1	2_0.gif
196.009	1	3	0	3	0.382	3	1	3_0.gif
197.009	1	2	0	2	0.396	2	1	2_0.gif
198.009	1	4	0	4	0.488	4	1	4_0.gif
199.009	1	2	0	2	0.312	2	1	2_0.gif
200.009	1	4	0	4	0.379	4	1	4_0.gif
201.009	1	3	0	3	0.33	3	1	3_0.gif
202.009	1	4	0	4	0.664	4	1	4_0.gif
203.009	1	3	0	3	0.364	3	1	3_0.gif
204.009	1	4	0	4	0.505	4	1	4_0.gif
205.009	1	3	0	3	0.325	3	1	3_0.gif
206.009	1	4	0	4	0.268	4	1	4_0.gif
207.009	1	3	0	3	0.377	3	1	3_0.gif
208.01	1	2	2	6	0	4	n/a	2_2.gif
209.01	1	1	2	6	0	3	n/a	1_2.gif
210.01	1	2	2	2	0.221	2	1	2_2.gif
211.01	1	1	2	1	0.148	1	1	1_2.gif
212.01	1	2	2	2	0.217	2	1	2_2.gif
213.01	1	1	2	1	0.179	1	1	1_2.gif
214.01	1	2	2	2	0.196	2	1	2_2.gif
215.01	1	3	2	1	0.292	1	1	3_2.gif
216.01	1	2	2	2	0.241	2	1	2_2.gif
217.01	1	4	2	3	0.155	3	1	4_2.gif
218.01	1	1	2	2	0.176	2	1	1_2.gif
219.01	1	3	2	4	0.076	4	1	3_2.gif
220.01	1	4	2	1	0.05	1	1	4_2.gif
221.01	1	1	2	4	0.008	3	0	1_2.gif
222.01	1	2	2	3	0.008	4	0	2_2.gif
223.01	1	3	2	4	0.008	1	0	3_2.gif
224.01	1	1	0	1	0.009	1	1	1_0.gif
225.01	1	2	0	2	0.251	2	1	2_0.gif
226.01	1	1	0	1	0.492	1	1	1_0.gif
227.01	1	2	0	2	0.328	2	1	2_0.gif
228.01	1	4	0	4	0.507	4	1	4_0.gif
229.01	1	2	0	2	0.486	2	1	2_0.gif
230.01	1	1	0	1	0.413	1	1	1_0.gif
231.01	1	4	0	4	0.596	4	1	4_0.gif
232.01	1	3	0	3	0.502	3	1	3_0.gif
233.01	1	4	0	4	0.476	4	1	4_0.gif
234.01	1	2	0	2	0.398	2	1	2_0.gif
235.01	1	4	0	4	0.504	4	1	4_0.gif
236.01	1	3	0	3	0.401	3	1	3_0.gif
237.01	1	2	0	2	0.362	2	1	2_0.gif
238.01	1	3	0	3	0.375	3	1	3_0.gif
239.01	1	1	0	1	0.381	1	1	1_0.gif
240.011	1	2	2	6	0	3	n/a	2_2.gif
241.011	1	3	2	6	0	1	n/a	3_2.gif
242.011	1	4	2	2	0.146	2	1	4_2.gif
243.011	1	3	2	3	0.146	3	1	3_2.gif
244.011	1	1	2	4	0.071	4	1	1_2.gif
245.011	1	2	2	3	0.056	3	1	2_2.gif
246.011	1	1	2	1	0.103	1	1	1_2.gif
247.011	1	3	2	2	0.012	2	1	3_2.gif
248.011	1	1	2	1	0.041	1	1	1_2.gif
249.011	1	3	2	3	0.009	3	1	3_2.gif
250.011	1	2	2	1	0.008	1	1	2_2.gif
251.011	1	1	2	3	0.008	3	1	1_2.gif
252.011	1	3	2	2	0.061	2	1	3_2.gif
253.011	1	4	2	1	0.03	1	1	4_2.gif
254.011	1	3	2	3	0.046	3	1	3_2.gif
255.011	1	2	2	4	0.033	4	1	2_2.gif
