onset	duration	nback_display	trial_type	response	response_time	correct_response	correct	stim_file
0	1	3	0	3	0.628	3	1	3_0.gif
1	1	4	0	4	0.513	4	1	4_0.gif
2	1	2	0	2	0.367	2	1	2_0.gif
3	1	3	0	3	0.509	3	1	3_0.gif
4	1	4	0	4	0.437	4	1	4_0.gif
5	1	2	0	2	0.406	2	1	2_0.gif
6	1	3	0	3	0.376	3	1	3_0.gif
7	1	4	0	4	0.436	4	1	4_0.gif
8	1	2	0	2	0.399	2	1	2_0.gif
9	1	4	0	4	0.546	4	1	4_0.gif
10	1	1	0	1	0.416	1	1	1_0.gif
11	1	2	0	2	0.422	2	1	2_0.gif
12	1	1	0	1	0.464	1	1	1_0.gif
13	1	2	0	2	0.456	2	1	2_0.gif
14	1	1	0	1	0.423	1	1	1_0.gif
15	1	3	0	3	0.4	3	1	3_0.gif
16	1	2	2	6	0	1	n/a	2_2.gif
17	1	4	2	6	0	3	n/a	4_2.gif
18	1	3	2	2	0.539	2	1	3_2.gif
19	1	2	2	4	0.353	4	1	2_2.gif
20	1	4	2	3	0.514	3	1	4_2.gif
21	1	1	2	2	0.492	2	1	1_2.gif
22	1	4	2	4	0.355	4	1	4_2.gif
23	1	1	2	1	0.052	1	1	1_2.gif
24	1	2	2	4	0.082	4	1	2_2.gif
25	1	3	2	1	0.003	1	1	3_2.gif
26	1	4	2	2	0.052	2	1	4_2.gif
27	1	1	2	6	0	3	n/a	1_2.gif
28	1	2	2	3	0.077	4	0	2_2.gif
29	1	4	2	1	0.11	1	1	4_2.gif
30	1	1	2	2	0.399	2	1	1_2.gif
31	1	2	2	6	0	4	n/a	2_2.gif
32.001	1	4	0	4	0.96	4	1	4_0.gif
33.001	1	2	0	4	0.003	2	0	2_0.gif
34.001	1	1	0	1	0.534	1	1	1_0.gif
35.001	1	4	0	4	0.539	4	1	4_0.gif
36.001	1	3	0	3	0.389	3	1	3_0.gif
37.001	1	2	0	2	0.325	2	1	2_0.gif
38.001	1	3	0	3	0.319	3	1	3_0.gif
39.001	1	4	0	4	0.459	4	1	4_0.gif
40.001	1	3	0	3	0.401	3	1	3_0.gif
41.001	1	2	0	2	0.357	2	1	2_0.gif
42.001	1	3	0	3	0.4	3	1	3_0.gif
43.001	1	1	0	1	0.4	1	1	1_0.gif
44.001	1	2	0	2	0.421	2	1	2_0.gif
45.001	1	1	0	1	0.387	1	1	1_0.gif
46.001	1	3	0	3	0.369	3	1	3_0.gif
47.001	1	4	0	4	0.403	4	1	4_0.gif
48.002	1	3	2	6	0	3	n/a	3_2.gif
49.002	1	1	2	6	0	4	n/a	1_2.gif
50.002	1	2	2	3	0.368	3	1	2_2.gif
51.002	1	1	2	1	0.4	1	1	1_2.gif
52.002	1	4	2	2	0.366	2	1	4_2.gif
53.002	1	3	2	1	0.275	1	1	3_2.gif
54.002	1	2	2	4	0.094	4	1	2_2.gif
55.002	1	3	2	3	0.338	3	1	3_2.gif
56.002	1	4	2	2	0.936	2	1	4_2.gif
57.002	1	1	2	2	0.003	3	0	1_2.gif
58.002	1	3	2	4	0.003	4	1	3_2.gif
59.002	1	4	2	6	0	1	n/a	4_2.gif
60.002	1	3	2	1	0.105	3	0	3_2.gif
61.002	1	2	2	4	0.067	4	1	2_2.gif
62.002	1	4	2	3	0.464	3	1	4_2.gif
63.002	1	1	2	1	0.716	2	0	1_2.gif
64.002	1	4	0	4	0.861	4	1	4_0.gif
65.002	1	2	0	4	0.003	2	0	2_0.gif
66.002	1	3	0	3	0.549	3	1	3_0.gif
67.002	1	2	0	2	0.367	2	1	2_0.gif
68.002	1	3	0	3	0.524	3	1	3_0.gif
69.002	1	1	0	1	0.389	1	1	1_0.gif
70.002	1	3	0	3	0.467	3	1	3_0.gif
71.002	1	4	0	4	0.549	4	1	4_0.gif
72.002	1	3	0	3	0.528	3	1	3_0.gif
73.002	1	4	0	4	0.513	4	1	4_0.gif
74.002	1	1	0	1	0.494	1	1	1_0.gif
75.002	1	2	0	2	0.383	2	1	2_0.gif
76.002	1	1	0	1	0.433	1	1	1_0.gif
77.002	1	4	0	4	0.54	4	1	4_0.gif
78.002	1	3	0	3	0.62	3	1	3_0.gif
79.002	1	4	0	4	0.715	4	1	4_0.gif
80.003	1	2	2	6	0	3	n/a	2_2.gif
81.003	1	1	2	6	0	4	n/a	1_2.gif
82.003	1	3	2	2	0.887	2	1	3_2.gif
83.003	1	1	2	2	0.003	1	0	1_2.gif
84.003	1	3	2	1	0.003	3	0	3_2.gif
85.003	1	2	2	3	0.003	1	0	2_2.gif
86.003	1	3	2	1	0.003	3	0	3_2.gif
87.003	1	4	2	2	0.361	2	1	4_2.gif
88.003	1	1	2	3	0.418	3	1	1_2.gif
89.003	1	2	2	4	0.003	4	1	2_2.gif
90.003	1	1	2	1	0.649	1	1	1_2.gif
91.003	1	3	2	2	0.716	2	1	3_2.gif
92.003	1	4	2	6	0	1	n/a	4_2.gif
93.003	1	2	2	3	0.797	3	1	2_2.gif
94.003	1	3	2	4	0.659	4	1	3_2.gif
95.003	1	2	2	2	0.838	2	1	2_2.gif
96.003	1	1	0	2	0.003	1	0	1_0.gif
97.003	1	4	0	4	0.538	4	1	4_0.gif
98.003	1	3	0	3	0.436	3	1	3_0.gif
99.003	1	2	0	2	0.359	2	1	2_0.gif
100.003	1	4	0	4	0.43	4	1	4_0.gif
101.003	1	3	0	3	0.548	3	1	3_0.gif
102.003	1	4	0	4	0.592	4	1	4_0.gif
103.003	1	2	0	2	0.458	2	1	2_0.gif
104.003	1	1	0	1	0.374	1	1	1_0.gif
105.003	1	4	0	4	0.645	4	1	4_0.gif
106.003	1	1	0	1	0.468	1	1	1_0.gif
107.003	1	3	0	3	0.724	3	1	3_0.gif
108.003	1	4	0	3	0.004	4	0	4_0.gif
109.003	1	2	0	4	0.005	2	0	2_0.gif
110.003	1	3	0	3	0.68	3	1	3_0.gif
111.003	1	1	0	1	0.566	1	1	1_0.gif
112.004	1	2	2	6	0	3	n/a	2_2.gif
113.004	1	1	2	6	0	1	n/a	1_2.gif
114.004	1	3	2	6	0	2	n/a	3_2.gif
115.004	1	4	2	1	0.201	1	1	4_2.gif
116.004	1	2	2	1	0.919	3	0	2_2.gif
117.004	1	4	2	1	0.003	4	0	4_2.gif
118.004	1	1	2	3	0.307	2	0	1_2.gif
119.004	1	4	2	2	0.014	4	0	4_2.gif
120.004	1	2	2	2	0.641	1	0	2_2.gif
121.004	1	4	2	4	0.708	4	1	4_2.gif
122.004	1	2	2	4	0.003	2	0	2_2.gif
123.004	1	1	2	4	0.56	4	1	1_2.gif
124.004	1	2	2	1	0.975	2	0	2_2.gif
125.004	1	1	2	1	0.003	1	1	1_2.gif
126.004	1	3	2	2	0.66	2	1	3_2.gif
127.004	1	4	2	4	0.454	1	0	4_2.gif
128.004	1	1	0	1	0.687	1	1	1_0.gif
129.004	1	2	0	2	0.72	2	1	2_0.gif
130.004	1	4	0	4	0.48	4	1	4_0.gif
131.004	1	1	0	1	0.367	1	1	1_0.gif
132.004	1	2	0	2	0.411	2	1	2_0.gif
133.004	1	3	0	3	0.867	3	1	3_0.gif
134.004	1	1	0	3	0.003	1	0	1_0.gif
135.004	1	2	0	2	0.524	2	1	2_0.gif
136.004	1	4	0	4	0.38	4	1	4_0.gif
137.004	1	3	0	3	0.408	3	1	3_0.gif
138.004	1	1	0	1	0.338	1	1	1_0.gif
139.004	1	4	0	4	0.604	4	1	4_0.gif
140.004	1	1	0	1	0.494	1	1	1_0.gif
141.004	1	4	0	4	0.548	4	1	4_0.gif
142.004	1	1	0	1	0.471	1	1	1_0.gif
143.004	1	4	0	4	0.525	4	1	4_0.gif
144.005	1	1	2	6	0	1	n/a	1_2.gif
145.005	1	3	2	6	0	4	n/a	3_2.gif
146.005	1	2	2	1	0.562	1	1	2_2.gif
147.005	1	1	2	3	0.363	3	1	1_2.gif
148.005	1	3	2	2	0.22	2	1	3_2.gif
149.005	1	2	2	1	0.104	1	1	2_2.gif
150.005	1	4	2	2	0.53	3	0	4_2.gif
151.005	1	2	2	6	0	2	n/a	2_2.gif
152.005	1	1	2	4	0.469	4	1	1_2.gif
153.005	1	4	2	1	0.997	2	0	4_2.gif
154.005	1	2	2	1	0.003	1	1	2_2.gif
155.005	1	1	2	1	0.577	4	0	1_2.gif
156.005	1	2	2	6	0	2	n/a	2_2.gif
157.005	1	4	2	4	0.19	1	0	4_2.gif
158.005	1	2	2	2	0.384	2	1	2_2.gif
159.005	1	3	2	6	0	4	n/a	3_2.gif
160.005	1	4	0	3	0.062	4	0	4_0.gif
161.005	1	2	0	4	0.003	2	0	2_0.gif
162.005	1	4	0	2	0.003	4	0	4_0.gif
163.005	1	2	0	2	0.559	2	1	2_0.gif
164.005	1	4	0	4	0.571	4	1	4_0.gif
165.005	1	1	0	1	0.599	1	1	1_0.gif
166.005	1	2	0	2	0.79	2	1	2_0.gif
167.005	1	1	0	1	0.988	1	1	1_0.gif
168.005	1	4	0	1	0.003	4	0	4_0.gif
169.005	1	2	0	4	0.003	2	0	2_0.gif
170.005	1	3	0	2	0.053	3	0	3_0.gif
171.005	1	2	0	3	0.003	2	0	2_0.gif
172.005	1	3	0	3	0.884	3	1	3_0.gif
173.005	1	1	0	3	0.003	1	0	1_0.gif
174.005	1	4	0	4	0.56	4	1	4_0.gif
175.005	1	1	0	1	0.484	1	1	1_0.gif
176.006	1	2	2	6	0	4	n/a	2_2.gif
177.006	1	3	2	6	0	1	n/a	3_2.gif
178.006	1	4	2	6	0	2	n/a	4_2.gif
179.006	1	2	2	2	0.156	3	0	2_2.gif
180.006	1	4	2	4	0.269	4	1	4_2.gif
181.006	1	3	2	2	0.003	2	1	3_2.gif
182.006	1	4	2	4	0.003	4	1	4_2.gif
183.006	1	2	2	4	0.909	3	0	2_2.gif
184.006	1	3	2	4	0.003	4	1	3_2.gif
185.006	1	4	2	3	0.338	2	0	4_2.gif
186.006	1	1	2	2	0.003	3	0	1_2.gif
187.006	1	4	2	1	0.484	4	0	4_2.gif
188.006	1	2	2	2	0.594	1	0	2_2.gif
189.006	1	3	2	6	0	4	n/a	3_2.gif
190.006	1	1	2	4	0.055	2	0	1_2.gif
191.006	1	3	2	2	0.521	3	0	3_2.gif
192.006	1	4	0	4	0.649	4	1	4_0.gif
193.006	1	2	0	2	0.426	2	1	2_0.gif
194.006	1	1	0	1	0.613	1	1	1_0.gif
195.006	1	2	0	2	0.499	2	1	2_0.gif
196.006	1	3	0	3	0.625	3	1	3_0.gif
197.006	1	4	0	4	0.563	4	1	4_0.gif
198.006	1	2	0	2	0.395	2	1	2_0.gif
199.006	1	4	0	4	0.553	4	1	4_0.gif
200.006	1	3	0	3	0.409	3	1	3_0.gif
201.006	1	4	0	4	0.467	4	1	4_0.gif
202.006	1	2	0	2	0.389	2	1	2_0.gif
203.006	1	3	0	3	0.541	3	1	3_0.gif
204.006	1	4	0	4	0.396	4	1	4_0.gif
205.006	1	2	0	2	0.436	2	1	2_0.gif
206.006	1	3	0	3	0.501	3	1	3_0.gif
207.006	1	4	0	4	0.36	4	1	4_0.gif
208.006	1	2	2	6	0	3	n/a	2_2.gif
209.007	1	4	2	6	0	4	n/a	4_2.gif
210.007	1	1	2	2	0.587	2	1	1_2.gif
211.007	1	2	2	4	0.453	4	1	2_2.gif
212.007	1	1	2	1	0.329	1	1	1_2.gif
213.007	1	2	2	2	0.002	2	1	2_2.gif
214.007	1	1	2	1	0.003	1	1	1_2.gif
215.007	1	3	2	2	0.033	2	1	3_2.gif
216.007	1	2	2	1	0.19	1	1	2_2.gif
217.007	1	4	2	3	0.38	3	1	4_2.gif
218.007	1	3	2	2	0.392	2	1	3_2.gif
219.007	1	2	2	4	0.267	4	1	2_2.gif
220.007	1	4	2	3	0.656	3	1	4_2.gif
221.007	1	1	2	2	0.286	2	1	1_2.gif
222.007	1	4	2	4	0.003	4	1	4_2.gif
223.007	1	1	2	1	0.003	1	1	1_2.gif
224.007	1	2	0	4	0.167	2	0	2_0.gif
225.007	1	3	0	2	0.003	3	0	3_0.gif
226.007	1	4	0	4	0.451	4	1	4_0.gif
227.007	1	1	0	1	0.351	1	1	1_0.gif
228.007	1	2	0	2	0.342	2	1	2_0.gif
229.007	1	4	0	4	0.5	4	1	4_0.gif
230.007	1	1	0	1	0.414	1	1	1_0.gif
231.007	1	2	0	2	0.453	2	1	2_0.gif
232.007	1	4	0	4	0.526	4	1	4_0.gif
233.007	1	2	0	2	0.966	2	1	2_0.gif
234.007	1	1	0	2	0.003	1	0	1_0.gif
235.007	1	4	0	1	0.003	4	0	4_0.gif
236.007	1	3	0	3	0.605	3	1	3_0.gif
237.007	1	2	0	2	0.526	2	1	2_0.gif
238.007	1	3	0	3	0.62	3	1	3_0.gif
239.007	1	4	0	4	0.638	4	1	4_0.gif
240.007	1	3	2	6	0	3	n/a	3_2.gif
241.007	1	2	2	6	0	4	n/a	2_2.gif
242.007	1	3	2	3	0.626	3	1	3_2.gif
243.007	1	1	2	2	0.293	2	1	1_2.gif
244.008	1	2	2	3	0.388	3	1	2_2.gif
245.008	1	1	2	1	0.333	1	1	1_2.gif
246.008	1	3	2	2	0.253	2	1	3_2.gif
247.008	1	4	2	1	0.221	1	1	4_2.gif
248.008	1	3	2	3	0.203	3	1	3_2.gif
249.008	1	1	2	4	0.104	4	1	1_2.gif
250.008	1	2	2	3	0.004	3	1	2_2.gif
251.008	1	1	2	1	0.003	1	1	1_2.gif
252.008	1	4	2	2	0.025	2	1	4_2.gif
253.008	1	3	2	1	0.002	1	1	3_2.gif
254.008	1	2	2	3	0.655	4	0	2_2.gif
255.008	1	3	2	4	0.453	3	0	3_2.gif
