onset	duration	nback_display	trial_type	response	response_time	correct_response	correct	stim_file
0	1	3	0	3	0.915	3	1	3_0.gif
1	1	1	0	3	0.008	1	0	1_0.gif
2	1	3	0	1	0.12	3	0	3_0.gif
3	1	2	0	3	0.023	2	0	2_0.gif
4	1	3	0	6	0	3	n/a	3_0.gif
5	1	4	0	3	0.079	4	0	4_0.gif
6	1	3	0	4	0.011	3	0	3_0.gif
7	1	2	0	3	0.225	2	0	2_0.gif
8	1	1	0	2	0.11	1	0	1_0.gif
9	1	3	0	1	0.008	3	0	3_0.gif
10	1	4	0	3	0.009	4	0	4_0.gif
11	1	1	0	4	0.008	1	0	1_0.gif
12	1	3	0	1	0.008	3	0	3_0.gif
13	1	1	0	3	0.008	1	0	1_0.gif
14	1	2	0	1	0.037	2	0	2_0.gif
15	1	1	0	2	0.009	1	0	1_0.gif
16	1	2	2	1	0.008	2	0	2_2.gif
17	1	4	2	4	0.491	1	0	4_2.gif
18	1	3	2	3	0.37	2	0	3_2.gif
19	1	4	2	1	0.37	4	0	4_2.gif
20	1	1	2	1	0.399	3	0	1_2.gif
21	1	2	2	2	0.322	4	0	2_2.gif
22	1	1	2	1	0.402	1	1	1_2.gif
23	1	4	2	4	0.343	2	0	4_2.gif
24	1	2	2	2	0.397	1	0	2_2.gif
25	1	3	2	3	0.32	4	0	3_2.gif
26	1	1	2	1	0.302	2	0	1_2.gif
27	1	4	2	4	0.392	3	0	4_2.gif
28	1	2	2	2	0.31	1	0	2_2.gif
29	1	4	2	4	0.419	4	1	4_2.gif
30	1	1	2	1	0.464	2	0	1_2.gif
31	1	3	2	3	0.37	4	0	3_2.gif
32.001	1	4	0	4	0.369	4	1	4_0.gif
33.001	1	2	0	2	0.31	2	1	2_0.gif
34.001	1	1	0	1	0.392	1	1	1_0.gif
35.001	1	4	0	4	0.372	4	1	4_0.gif
36.001	1	2	0	6	0	2	n/a	2_0.gif
37.001	1	4	0	4	0.459	4	1	4_0.gif
38.001	1	2	0	2	0.34	2	1	2_0.gif
39.001	1	3	0	3	0.387	3	1	3_0.gif
40.001	1	1	0	1	0.476	1	1	1_0.gif
41.001	1	2	0	2	0.392	2	1	2_0.gif
42.001	1	1	0	1	0.352	1	1	1_0.gif
43.001	1	4	0	4	0.309	4	1	4_0.gif
44.001	1	3	0	3	0.34	3	1	3_0.gif
45.001	1	2	0	2	0.433	2	1	2_0.gif
46.001	1	1	0	1	0.334	1	1	1_0.gif
47.001	1	3	0	3	0.356	3	1	3_0.gif
48.001	1	2	2	6	0	1	n/a	2_2.gif
49.001	1	3	2	3	0.398	3	1	3_2.gif
50.001	1	1	2	1	0.449	2	0	1_2.gif
51.001	1	2	2	2	0.328	3	0	2_2.gif
52.001	1	4	2	4	0.36	1	0	4_2.gif
53.001	1	3	2	3	0.295	2	0	3_2.gif
54.001	1	2	2	2	0.36	4	0	2_2.gif
55.001	1	4	2	4	0.333	3	0	4_2.gif
56.001	1	2	2	2	0.464	2	1	2_2.gif
57.001	1	4	2	4	0.395	4	1	4_2.gif
58.001	1	2	2	2	0.399	2	1	2_2.gif
59.001	1	4	2	4	0.318	4	1	4_2.gif
60.001	1	3	2	3	0.331	2	0	3_2.gif
61.001	1	1	2	1	0.495	4	0	1_2.gif
62.001	1	4	2	4	0.438	3	0	4_2.gif
63.001	1	3	2	3	0.357	1	0	3_2.gif
64.001	1	1	0	1	0.439	1	1	1_0.gif
65.001	1	3	0	3	0.314	3	1	3_0.gif
66.001	1	4	0	4	0.305	4	1	4_0.gif
67.001	1	2	0	2	0.859	2	1	2_0.gif
68.001	1	1	0	2	0.009	1	0	1_0.gif
69.001	1	4	0	4	0.492	4	1	4_0.gif
70.001	1	3	0	3	0.363	3	1	3_0.gif
71.001	1	4	0	4	0.43	4	1	4_0.gif
72.001	1	2	0	2	0.344	2	1	2_0.gif
73.001	1	1	0	1	0.457	1	1	1_0.gif
74.001	1	2	0	2	0.412	2	1	2_0.gif
75.001	1	4	0	4	0.358	4	1	4_0.gif
76.001	1	3	0	3	0.257	3	1	3_0.gif
77.001	1	1	0	1	0.357	1	1	1_0.gif
78.001	1	2	0	2	0.254	2	1	2_0.gif
79.001	1	4	0	4	0.29	4	1	4_0.gif
80.002	1	2	2	2	0.439	2	1	2_2.gif
81.002	1	3	2	3	0.339	4	0	3_2.gif
82.002	1	2	2	2	0.369	2	1	2_2.gif
83.002	1	4	2	4	0.308	3	0	4_2.gif
84.002	1	1	2	1	0.388	2	0	1_2.gif
85.002	1	2	2	2	0.306	4	0	2_2.gif
86.002	1	1	2	1	0.4	1	1	1_2.gif
87.002	1	3	2	3	0.322	2	0	3_2.gif
88.002	1	4	2	4	0.278	1	0	4_2.gif
89.002	1	1	2	1	0.366	3	0	1_2.gif
90.002	1	3	2	3	0.446	4	0	3_2.gif
91.002	1	1	2	1	0.432	1	1	1_2.gif
92.002	1	3	2	3	0.323	3	1	3_2.gif
93.002	1	1	2	1	0.395	1	1	1_2.gif
94.002	1	2	2	2	0.366	3	0	2_2.gif
95.002	1	4	2	4	0.241	1	0	4_2.gif
96.002	1	3	0	3	0.322	3	1	3_0.gif
97.002	1	2	0	2	0.332	2	1	2_0.gif
98.002	1	4	0	4	0.321	4	1	4_0.gif
99.002	1	1	0	1	0.486	1	1	1_0.gif
100.002	1	2	0	2	0.368	2	1	2_0.gif
101.002	1	4	0	4	0.292	4	1	4_0.gif
102.002	1	1	0	1	0.399	1	1	1_0.gif
103.002	1	2	0	2	0.334	2	1	2_0.gif
104.002	1	1	0	1	0.4	1	1	1_0.gif
105.002	1	3	0	3	0.35	3	1	3_0.gif
106.002	1	4	0	4	0.238	4	1	4_0.gif
107.002	1	2	0	2	0.324	2	1	2_0.gif
108.002	1	3	0	3	0.33	3	1	3_0.gif
109.002	1	1	0	1	0.246	1	1	1_0.gif
110.002	1	3	0	3	0.375	3	1	3_0.gif
111.002	1	1	0	1	0.388	1	1	1_0.gif
112.003	1	3	2	3	0.417	3	1	3_2.gif
113.003	1	4	2	6	0	1	n/a	4_2.gif
114.003	1	2	2	2	0.355	3	0	2_2.gif
115.003	1	4	2	4	0.375	4	1	4_2.gif
116.003	1	1	2	1	0.405	2	0	1_2.gif
117.003	1	2	2	2	0.359	4	0	2_2.gif
118.003	1	1	2	1	0.424	1	1	1_2.gif
119.003	1	3	2	3	0.35	2	0	3_2.gif
120.003	1	1	2	1	0.425	1	1	1_2.gif
121.003	1	2	2	2	0.374	3	0	2_2.gif
122.003	1	3	2	3	0.386	1	0	3_2.gif
123.003	1	2	2	2	0.274	2	1	2_2.gif
124.003	1	3	2	3	0.352	3	1	3_2.gif
125.003	1	4	2	4	0.315	2	0	4_2.gif
126.003	1	2	2	2	0.368	3	0	2_2.gif
127.003	1	1	2	1	0.381	4	0	1_2.gif
128.003	1	3	0	3	0.395	3	1	3_0.gif
129.003	1	1	0	1	0.372	1	1	1_0.gif
130.003	1	4	0	4	0.41	4	1	4_0.gif
131.003	1	3	0	3	0.356	3	1	3_0.gif
132.003	1	1	0	1	0.358	1	1	1_0.gif
133.003	1	2	0	2	0.349	2	1	2_0.gif
134.003	1	3	0	3	0.236	3	1	3_0.gif
135.003	1	4	0	4	0.397	4	1	4_0.gif
136.003	1	3	0	3	0.41	3	1	3_0.gif
137.003	1	2	0	2	0.314	2	1	2_0.gif
138.003	1	1	0	1	0.392	1	1	1_0.gif
139.003	1	2	0	2	0.409	2	1	2_0.gif
140.003	1	4	0	4	0.293	4	1	4_0.gif
141.003	1	1	0	1	0.363	1	1	1_0.gif
142.003	1	3	0	3	0.305	3	1	3_0.gif
143.003	1	1	0	1	0.355	1	1	1_0.gif
144.004	1	2	2	2	0.371	3	0	2_2.gif
145.004	1	1	2	1	0.372	1	1	1_2.gif
146.004	1	3	2	3	0.243	2	0	3_2.gif
147.004	1	4	2	4	0.274	1	0	4_2.gif
148.004	1	3	2	3	0.426	3	1	3_2.gif
149.004	1	2	2	2	0.286	4	0	2_2.gif
150.004	1	1	2	1	0.231	3	0	1_2.gif
151.004	1	2	2	2	0.408	2	1	2_2.gif
152.004	1	3	2	3	0.309	1	0	3_2.gif
153.004	1	2	2	2	0.282	2	1	2_2.gif
154.004	1	3	2	3	0.457	3	1	3_2.gif
155.004	1	1	2	1	0.309	2	0	1_2.gif
156.004	1	2	2	2	0.296	3	0	2_2.gif
157.004	1	4	2	4	0.247	1	0	4_2.gif
158.004	1	3	2	3	0.263	2	0	3_2.gif
159.004	1	4	2	4	0.366	4	1	4_2.gif
160.004	1	2	0	2	0.321	2	1	2_0.gif
161.004	1	4	0	4	0.294	4	1	4_0.gif
162.004	1	2	0	2	0.32	2	1	2_0.gif
163.004	1	4	0	4	0.291	4	1	4_0.gif
164.004	1	2	0	2	0.325	2	1	2_0.gif
165.004	1	1	0	1	0.381	1	1	1_0.gif
166.004	1	3	0	3	0.352	3	1	3_0.gif
167.004	1	4	0	4	0.32	4	1	4_0.gif
168.004	1	3	0	3	0.368	3	1	3_0.gif
169.004	1	4	0	4	0.248	4	1	4_0.gif
170.004	1	2	0	2	0.355	2	1	2_0.gif
171.004	1	3	0	3	0.332	3	1	3_0.gif
172.004	1	2	0	2	0.341	2	1	2_0.gif
173.004	1	1	0	1	0.371	1	1	1_0.gif
174.004	1	3	0	3	0.284	3	1	3_0.gif
175.004	1	4	0	4	0.26	4	1	4_0.gif
176.004	1	3	2	3	0.423	3	1	3_2.gif
177.004	1	2	2	2	0.33	4	0	2_2.gif
178.004	1	1	2	1	0.429	3	0	1_2.gif
179.004	1	4	2	4	0.33	2	0	4_2.gif
180.004	1	3	2	3	0.335	1	0	3_2.gif
181.004	1	2	2	2	0.292	4	0	2_2.gif
182.004	1	3	2	3	0.295	3	1	3_2.gif
183.004	1	2	2	2	0.314	2	1	2_2.gif
184.004	1	3	2	3	0.339	3	1	3_2.gif
185.004	1	2	2	2	0.316	2	1	2_2.gif
186.004	1	1	2	1	0.42	3	0	1_2.gif
187.004	1	2	2	2	0.447	2	1	2_2.gif
188.004	1	4	2	4	0.306	1	0	4_2.gif
189.004	1	2	2	2	0.301	2	1	2_2.gif
190.004	1	1	2	1	0.339	4	0	1_2.gif
191.004	1	2	2	2	0.275	2	1	2_2.gif
192.005	1	1	0	1	0.463	1	1	1_0.gif
193.005	1	4	0	4	0.411	4	1	4_0.gif
194.005	1	2	0	2	0.323	2	1	2_0.gif
195.005	1	1	0	1	0.334	1	1	1_0.gif
196.005	1	3	0	3	0.348	3	1	3_0.gif
197.005	1	1	0	1	0.44	1	1	1_0.gif
198.005	1	3	0	3	0.445	3	1	3_0.gif
199.005	1	2	0	2	0.308	2	1	2_0.gif
200.005	1	3	0	3	0.442	3	1	3_0.gif
201.005	1	4	0	4	0.279	4	1	4_0.gif
202.005	1	3	0	3	0.336	3	1	3_0.gif
203.005	1	2	0	2	0.329	2	1	2_0.gif
204.005	1	1	0	1	0.322	1	1	1_0.gif
205.005	1	3	0	3	0.353	3	1	3_0.gif
206.005	1	4	0	4	0.347	4	1	4_0.gif
207.005	1	1	0	1	0.374	1	1	1_0.gif
208.005	1	3	2	3	0.35	4	0	3_2.gif
209.005	1	1	2	1	0.384	1	1	1_2.gif
210.005	1	2	2	2	0.348	3	0	2_2.gif
211.005	1	1	2	1	0.45	1	1	1_2.gif
212.005	1	2	2	2	0.44	2	1	2_2.gif
213.005	1	4	2	4	0.498	1	0	4_2.gif
214.005	1	3	2	3	0.299	2	0	3_2.gif
215.005	1	4	2	4	0.409	4	1	4_2.gif
216.005	1	1	2	1	0.293	3	0	1_2.gif
217.005	1	2	2	2	0.286	4	0	2_2.gif
218.005	1	1	2	1	0.409	1	1	1_2.gif
219.005	1	4	2	4	0.366	2	0	4_2.gif
220.005	1	2	2	2	0.361	1	0	2_2.gif
221.005	1	3	2	3	0.291	4	0	3_2.gif
222.005	1	1	2	1	0.291	2	0	1_2.gif
223.005	1	4	2	4	0.463	3	0	4_2.gif
224.008	1	2	0	2	0.335	2	1	2_0.gif
225.008	1	4	0	4	0.417	4	1	4_0.gif
226.008	1	1	0	1	0.362	1	1	1_0.gif
227.008	1	3	0	3	0.307	3	1	3_0.gif
228.008	1	4	0	4	0.219	4	1	4_0.gif
229.008	1	2	0	2	0.306	2	1	2_0.gif
230.008	1	1	0	1	0.241	1	1	1_0.gif
231.008	1	4	0	4	0.374	4	1	4_0.gif
232.008	1	2	0	2	0.337	2	1	2_0.gif
233.008	1	4	0	4	0.429	4	1	4_0.gif
234.008	1	2	0	2	0.316	2	1	2_0.gif
235.008	1	3	0	3	0.412	3	1	3_0.gif
236.008	1	1	0	1	0.316	1	1	1_0.gif
237.008	1	2	0	2	0.475	2	1	2_0.gif
238.008	1	1	0	1	0.396	1	1	1_0.gif
239.008	1	4	0	4	0.361	4	1	4_0.gif
240.009	1	3	2	3	0.354	1	0	3_2.gif
241.009	1	2	2	2	0.369	4	0	2_2.gif
242.009	1	1	2	1	0.26	3	0	1_2.gif
243.009	1	3	2	3	0.359	2	0	3_2.gif
244.009	1	2	2	2	0.385	1	0	2_2.gif
245.009	1	3	2	3	0.343	3	1	3_2.gif
246.009	1	1	2	1	0.352	2	0	1_2.gif
247.009	1	2	2	2	0.352	3	0	2_2.gif
248.009	1	4	2	4	0.298	1	0	4_2.gif
249.009	1	3	2	3	0.248	2	0	3_2.gif
250.01	1	2	2	2	0.42	4	0	2_2.gif
251.01	1	4	2	4	0.433	3	0	4_2.gif
252.01	1	2	2	2	0.378	2	1	2_2.gif
253.01	1	4	2	4	0.299	4	1	4_2.gif
254.01	1	2	2	2	0.347	2	1	2_2.gif
255.01	1	4	2	4	0.385	4	1	4_2.gif
