onset	duration	nback_display	trial_type	response	response_time	correct_response	correct	stim_file
0	1	3	0	3	0.613	3	1	3_0.gif
1	1	4	0	4	0.598	4	1	4_0.gif
2	1	2	0	2	0.334	2	1	2_0.gif
3	1	3	0	3	0.297	3	1	3_0.gif
4	1	4	0	4	0.433	4	1	4_0.gif
5	1	3	0	3	0.43	3	1	3_0.gif
6	1	2	0	2	0.335	2	1	2_0.gif
7	1	1	0	1	0.349	1	1	1_0.gif
8	1	3	0	3	0.392	3	1	3_0.gif
9	1	4	0	4	0.411	4	1	4_0.gif
10	1	1	0	1	0.523	1	1	1_0.gif
11	1	2	0	2	0.329	2	1	2_0.gif
12	1	1	0	1	0.492	1	1	1_0.gif
13	1	2	0	2	0.415	2	1	2_0.gif
14	1	1	0	1	0.511	1	1	1_0.gif
15	1	2	0	2	0.424	2	1	2_0.gif
16	1	4	2	6	0	1	n/a	4_2.gif
17	1	3	2	6	0	2	n/a	3_2.gif
18	1	4	2	4	0.275	4	1	4_2.gif
19	1	3	2	3	0.315	3	1	3_2.gif
20	1	4	2	4	0.389	4	1	4_2.gif
21	1	1	2	3	0.392	3	1	1_2.gif
22	1	2	2	4	0.368	4	1	2_2.gif
23	1	4	2	1	0.405	1	1	4_2.gif
24	1	1	2	2	0.404	2	1	1_2.gif
25	1	4	2	4	0.435	4	1	4_2.gif
26	1	2	2	1	0.509	1	1	2_2.gif
27	1	4	2	4	0.354	4	1	4_2.gif
28	1	1	2	2	0.416	2	1	1_2.gif
29	1	3	2	4	0.328	4	1	3_2.gif
30	1	4	2	1	0.37	1	1	4_2.gif
31	1	2	2	3	0.27	3	1	2_2.gif
32	1	1	0	4	0.377	1	0	1_0.gif
33	1	4	0	4	0.584	4	1	4_0.gif
34	1	2	0	2	0.612	2	1	2_0.gif
35	1	4	0	4	0.593	4	1	4_0.gif
36	1	2	0	2	0.601	2	1	2_0.gif
37	1	3	0	3	0.526	3	1	3_0.gif
38	1	1	0	1	0.594	1	1	1_0.gif
39	1	2	0	2	0.56	2	1	2_0.gif
40	1	1	0	1	0.704	1	1	1_0.gif
41	1	4	0	4	0.62	4	1	4_0.gif
42	1	2	0	2	0.504	2	1	2_0.gif
43	1	3	0	3	0.455	3	1	3_0.gif
44	1	4	0	4	0.369	4	1	4_0.gif
45	1	3	0	3	0.382	3	1	3_0.gif
46	1	2	0	2	0.357	2	1	2_0.gif
47	1	3	0	3	0.413	3	1	3_0.gif
48.001	1	1	2	6	0	2	n/a	1_2.gif
49.001	1	2	2	6	0	3	n/a	2_2.gif
50.001	1	4	2	1	0.346	1	1	4_2.gif
51.001	1	3	2	2	0.347	2	1	3_2.gif
52.001	1	2	2	4	0.323	4	1	2_2.gif
53.001	1	4	2	3	0.442	3	1	4_2.gif
54.001	1	2	2	2	0.397	2	1	2_2.gif
55.001	1	3	2	4	0.483	4	1	3_2.gif
56.001	1	2	2	2	0.454	2	1	2_2.gif
57.001	1	4	2	3	0.651	3	1	4_2.gif
58.001	1	3	2	2	0.594	2	1	3_2.gif
59.001	1	1	2	4	0.652	4	1	1_2.gif
60.001	1	3	2	6	0	3	n/a	3_2.gif
61.001	1	1	2	1	0.141	1	1	1_2.gif
62.001	1	4	2	3	0.488	3	1	4_2.gif
63.001	1	2	2	4	0.984	1	0	2_2.gif
64.001	1	4	0	4	0.004	4	1	4_0.gif
65.001	1	2	0	4	0.253	2	0	2_0.gif
66.001	1	1	0	1	0.578	1	1	1_0.gif
67.001	1	3	0	3	0.398	3	1	3_0.gif
68.001	1	1	0	1	0.505	1	1	1_0.gif
69.001	1	2	0	2	0.383	2	1	2_0.gif
70.001	1	1	0	1	0.566	1	1	1_0.gif
71.001	1	2	0	2	0.368	2	1	2_0.gif
72.001	1	3	0	3	0.665	3	1	3_0.gif
73.001	1	4	0	4	0.493	4	1	4_0.gif
74.005	1	1	0	1	0.491	1	1	1_0.gif
75.005	1	4	0	4	0.548	4	1	4_0.gif
76.005	1	2	0	2	0.426	2	1	2_0.gif
77.005	1	3	0	3	0.317	3	1	3_0.gif
78.005	1	2	0	2	0.355	2	1	2_0.gif
79.005	1	4	0	4	0.409	4	1	4_0.gif
80.005	1	1	2	1	0.426	2	0	1_2.gif
81.005	1	2	2	6	0	4	n/a	2_2.gif
82.005	1	1	2	6	0	1	n/a	1_2.gif
83.005	1	3	2	2	0.592	2	1	3_2.gif
84.005	1	4	2	1	0.538	1	1	4_2.gif
85.006	1	1	2	3	0.358	3	1	1_2.gif
86.006	1	3	2	4	0.294	4	1	3_2.gif
87.006	1	1	2	1	0.349	1	1	1_2.gif
88.012	1	3	2	3	0.293	3	1	3_2.gif
89.012	1	4	2	6	0	1	n/a	4_2.gif
90.012	1	2	2	6	0	3	n/a	2_2.gif
91.012	1	4	2	4	0.264	4	1	4_2.gif
92.012	1	3	2	2	0.222	2	1	3_2.gif
93.012	1	2	2	4	0.244	4	1	2_2.gif
94.012	1	4	2	3	0.272	3	1	4_2.gif
95.012	1	1	2	2	0.295	2	1	1_2.gif
96.013	1	2	0	4	0.331	2	0	2_0.gif
97.013	1	4	0	4	0.554	4	1	4_0.gif
98.013	1	1	0	1	0.551	1	1	1_0.gif
99.013	1	2	0	2	0.424	2	1	2_0.gif
100.013	1	1	0	1	0.386	1	1	1_0.gif
101.013	1	4	0	4	0.714	4	1	4_0.gif
102.013	1	1	0	1	0.508	1	1	1_0.gif
103.013	1	3	0	3	0.468	3	1	3_0.gif
104.014	1	4	0	4	0.373	4	1	4_0.gif
105.014	1	2	0	2	0.351	2	1	2_0.gif
106.014	1	3	0	3	0.416	3	1	3_0.gif
107.014	1	1	0	1	0.407	1	1	1_0.gif
108.014	1	3	0	3	0.416	3	1	3_0.gif
109.014	1	1	0	1	0.482	1	1	1_0.gif
110.014	1	3	0	3	0.474	3	1	3_0.gif
111.017	1	4	0	4	0.308	4	1	4_0.gif
112.018	1	2	2	6	0	3	n/a	2_2.gif
113.018	1	4	2	6	0	4	n/a	4_2.gif
114.018	1	1	2	2	0.262	2	1	1_2.gif
115.018	1	2	2	4	0.221	4	1	2_2.gif
116.019	1	1	2	1	0.215	1	1	1_2.gif
117.019	1	2	2	2	0.281	2	1	2_2.gif
118.019	1	1	2	1	0.308	1	1	1_2.gif
119.019	1	2	2	2	0.369	2	1	2_2.gif
120.019	1	4	2	1	0.495	1	1	4_2.gif
121.019	1	3	2	2	0.38	2	1	3_2.gif
122.019	1	4	2	4	0.315	4	1	4_2.gif
123.019	1	2	2	3	0.283	3	1	2_2.gif
124.019	1	1	2	4	0.237	4	1	1_2.gif
125.02	1	3	2	2	0.171	2	1	3_2.gif
126.02	1	1	2	1	0.175	1	1	1_2.gif
127.025	1	4	2	1	0.236	3	0	4_2.gif
128.025	1	3	0	3	0.548	3	1	3_0.gif
129.025	1	1	0	1	0.414	1	1	1_0.gif
130.025	1	2	0	2	0.287	2	1	2_0.gif
131.025	1	3	0	3	0.312	3	1	3_0.gif
132.025	1	4	0	4	0.482	4	1	4_0.gif
133.025	1	3	0	3	0.484	3	1	3_0.gif
134.025	1	1	0	1	0.578	1	1	1_0.gif
135.025	1	4	0	4	0.437	4	1	4_0.gif
136.025	1	1	0	1	0.394	1	1	1_0.gif
137.025	1	4	0	4	0.258	4	1	4_0.gif
138.027	1	1	0	1	0.287	1	1	1_0.gif
139.027	1	4	0	4	0.397	4	1	4_0.gif
140.027	1	2	0	2	0.37	2	1	2_0.gif
141.027	1	1	0	1	0.417	1	1	1_0.gif
142.027	1	3	0	3	0.422	3	1	3_0.gif
143.027	1	4	0	4	0.51	4	1	4_0.gif
144.028	1	3	2	6	0	3	n/a	3_2.gif
145.028	1	1	2	6	0	4	n/a	1_2.gif
146.028	1	2	2	3	0.355	3	1	2_2.gif
147.028	1	1	2	1	0.207	1	1	1_2.gif
148.028	1	2	2	2	0.164	2	1	2_2.gif
149.028	1	3	2	1	0.07	1	1	3_2.gif
150.028	1	1	2	2	0.004	2	1	1_2.gif
151.028	1	2	2	3	0.041	3	1	2_2.gif
152.035	1	4	2	2	0.196	1	0	4_2.gif
153.035	1	2	2	4	0.725	2	0	2_2.gif
154.035	1	3	2	6	0	4	n/a	3_2.gif
155.035	1	4	2	6	0	2	n/a	4_2.gif
156.035	1	2	2	6	0	3	n/a	2_2.gif
157.035	1	4	2	4	0.081	4	1	4_2.gif
158.035	1	2	2	6	0	2	n/a	2_2.gif
159.035	1	4	2	2	0.732	4	0	4_2.gif
160.037	1	1	0	1	0.682	1	1	1_0.gif
161.037	1	2	0	2	0.411	2	1	2_0.gif
162.037	1	1	0	1	0.4	1	1	1_0.gif
163.037	1	3	0	3	0.327	3	1	3_0.gif
164.037	1	2	0	2	0.252	2	1	2_0.gif
165.04	1	4	0	4	0.368	4	1	4_0.gif
166.04	1	3	0	3	0.297	3	1	3_0.gif
167.04	1	4	0	4	0.469	4	1	4_0.gif
168.04	1	3	0	3	0.318	3	1	3_0.gif
169.04	1	4	0	4	0.288	4	1	4_0.gif
170.04	1	2	0	2	0.385	2	1	2_0.gif
171.04	1	4	0	4	0.53	4	1	4_0.gif
172.041	1	3	0	3	0.461	3	1	3_0.gif
173.041	1	1	0	1	0.573	1	1	1_0.gif
174.041	1	3	0	3	0.674	3	1	3_0.gif
175.041	1	4	0	3	0.003	4	0	4_0.gif
176.041	1	3	2	6	0	3	n/a	3_2.gif
177.041	1	2	2	6	0	4	n/a	2_2.gif
178.041	1	1	2	3	0.376	3	1	1_2.gif
179.041	1	4	2	2	0.251	2	1	4_2.gif
180.041	1	3	2	1	0.287	1	1	3_2.gif
181.041	1	2	2	4	0.251	4	1	2_2.gif
182.041	1	1	2	3	0.286	3	1	1_2.gif
183.041	1	3	2	2	0.285	2	1	3_2.gif
184.041	1	2	2	1	0.264	1	1	2_2.gif
185.041	1	1	2	3	0.277	3	1	1_2.gif
186.041	1	2	2	2	0.246	2	1	2_2.gif
187.041	1	4	2	1	0.301	1	1	4_2.gif
188.041	1	2	2	2	0.155	2	1	2_2.gif
189.041	1	1	2	4	0.044	4	1	1_2.gif
190.041	1	2	2	2	0.133	2	1	2_2.gif
191.041	1	3	2	1	0.202	1	1	3_2.gif
192.041	1	4	0	2	0.057	4	0	4_0.gif
193.041	1	2	0	2	0.488	2	1	2_0.gif
194.041	1	4	0	4	0.46	4	1	4_0.gif
195.041	1	3	0	3	0.368	3	1	3_0.gif
196.041	1	4	0	4	0.442	4	1	4_0.gif
197.042	1	2	0	2	0.349	2	1	2_0.gif
198.042	1	3	0	3	0.304	3	1	3_0.gif
199.042	1	4	0	4	0.278	4	1	4_0.gif
200.042	1	3	0	3	0.479	3	1	3_0.gif
201.042	1	2	0	2	0.366	2	1	2_0.gif
202.042	1	1	0	1	0.416	1	1	1_0.gif
203.042	1	3	0	3	0.395	3	1	3_0.gif
204.042	1	4	0	4	0.278	4	1	4_0.gif
205.043	1	1	0	1	0.553	1	1	1_0.gif
206.043	1	2	0	2	0.345	2	1	2_0.gif
207.043	1	1	0	1	0.473	1	1	1_0.gif
208.043	1	2	2	6	0	2	n/a	2_2.gif
209.043	1	1	2	6	0	1	n/a	1_2.gif
210.043	1	2	2	2	0.291	2	1	2_2.gif
211.043	1	4	2	1	0.215	1	1	4_2.gif
212.044	1	3	2	2	0.158	2	1	3_2.gif
213.044	1	4	2	4	0.178	4	1	4_2.gif
214.044	1	3	2	3	0.833	3	1	3_2.gif
215.044	1	4	2	3	0.003	4	0	4_2.gif
216.044	1	1	2	4	0.007	3	0	1_2.gif
217.044	1	2	2	2	0.472	4	0	2_2.gif
218.044	1	4	2	6	0	1	n/a	4_2.gif
219.044	1	1	2	6	0	2	n/a	1_2.gif
220.044	1	4	2	4	0.272	4	1	4_2.gif
221.044	1	2	2	1	0.289	1	1	2_2.gif
222.044	1	4	2	4	0.235	4	1	4_2.gif
223.044	1	1	2	2	0.267	2	1	1_2.gif
224.044	1	3	0	4	0.318	3	0	3_0.gif
225.044	1	4	0	3	0.003	4	0	4_0.gif
226.044	1	2	0	2	0.405	2	1	2_0.gif
227.044	1	1	0	1	0.325	1	1	1_0.gif
228.044	1	4	0	4	0.433	4	1	4_0.gif
229.044	1	2	0	2	0.368	2	1	2_0.gif
230.044	1	4	0	4	0.476	4	1	4_0.gif
231.044	1	2	0	2	0.394	2	1	2_0.gif
232.044	1	3	0	3	0.457	3	1	3_0.gif
233.044	1	1	0	1	0.404	1	1	1_0.gif
234.044	1	2	0	2	0.253	2	1	2_0.gif
235.044	1	1	0	1	0.331	1	1	1_0.gif
236.044	1	4	0	4	0.57	4	1	4_0.gif
237.045	1	2	0	2	0.334	2	1	2_0.gif
238.045	1	3	0	3	0.291	3	1	3_0.gif
239.045	1	4	0	4	0.499	4	1	4_0.gif
240.045	1	3	2	6	0	3	n/a	3_2.gif
241.045	1	2	2	6	0	4	n/a	2_2.gif
242.045	1	3	2	3	0.56	3	1	3_2.gif
243.045	1	1	2	2	0.33	2	1	1_2.gif
244.045	1	2	2	3	0.261	3	1	2_2.gif
245.045	1	4	2	1	0.263	1	1	4_2.gif
246.045	1	3	2	2	0.218	2	1	3_2.gif
247.045	1	2	2	4	0.215	4	1	2_2.gif
248.045	1	4	2	3	0.275	3	1	4_2.gif
249.045	1	2	2	2	0.245	2	1	2_2.gif
250.045	1	3	2	6	0	4	n/a	3_2.gif
251.046	1	2	2	2	0.405	2	1	2_2.gif
252.046	1	4	2	3	0.235	3	1	4_2.gif
253.046	1	3	2	2	0.204	2	1	3_2.gif
254.046	1	1	2	4	0.194	4	1	1_2.gif
255.046	1	3	2	3	0.214	3	1	3_2.gif
