onset	duration	nback_display	trial_type	response	response_time	correct_response	correct	stim_file
0	1	1	0	1	0.518	1	1	1_0.gif
1	1	3	0	3	0.485	3	1	3_0.gif
2	1	2	0	2	0.403	2	1	2_0.gif
3	1	1	0	1	0.428	1	1	1_0.gif
4	1	4	0	4	0.326	4	1	4_0.gif
5	1	1	0	1	0.355	1	1	1_0.gif
6	1	2	0	2	0.358	2	1	2_0.gif
7	1	1	0	1	0.345	1	1	1_0.gif
8	1	2	0	2	0.339	2	1	2_0.gif
9	1	3	0	3	0.396	3	1	3_0.gif
10	1	1	0	1	0.39	1	1	1_0.gif
11	1	3	0	3	0.42	3	1	3_0.gif
12	1	4	0	4	0.397	4	1	4_0.gif
13	1	1	0	1	0.373	1	1	1_0.gif
14	1	3	0	3	0.387	3	1	3_0.gif
15	1	1	0	1	0.342	1	1	1_0.gif
16	1	4	2	6	0	3	n/a	4_2.gif
17	1	3	2	6	0	1	n/a	3_2.gif
18	1	1	2	4	0.28	4	1	1_2.gif
19	1	4	2	3	0.173	3	1	4_2.gif
20	1	2	2	1	0.166	1	1	2_2.gif
21	1	1	2	4	0.181	4	1	1_2.gif
22	1	3	2	2	0.196	2	1	3_2.gif
23	1	1	2	1	0.181	1	1	1_2.gif
24	1	3	2	3	0.201	3	1	3_2.gif
25	1	1	2	1	0.191	1	1	1_2.gif
26	1	4	2	3	0.179	3	1	4_2.gif
27	1	3	2	4	0.182	1	0	3_2.gif
28	1	4	2	6	0	4	n/a	4_2.gif
29	1	2	2	6	0	3	n/a	2_2.gif
30	1	4	2	4	0.137	4	1	4_2.gif
31	1	1	2	2	0.104	2	1	1_2.gif
32.001	1	3	0	4	0.013	3	0	3_0.gif
33.001	1	4	0	3	0.005	4	0	4_0.gif
34.001	1	2	0	2	0.638	2	1	2_0.gif
35.002	1	1	0	1	0.627	1	1	1_0.gif
36.002	1	2	0	2	0.519	2	1	2_0.gif
37.002	1	1	0	1	0.493	1	1	1_0.gif
38.002	1	2	0	2	0.466	2	1	2_0.gif
39.002	1	1	0	1	0.423	1	1	1_0.gif
40.002	1	3	0	3	0.474	3	1	3_0.gif
41.002	1	4	0	4	0.585	4	1	4_0.gif
42.002	1	1	0	1	0.398	1	1	1_0.gif
43.002	1	2	0	2	0.393	2	1	2_0.gif
44.002	1	4	0	4	0.381	4	1	4_0.gif
45.002	1	3	0	3	0.38	3	1	3_0.gif
46.002	1	1	0	1	0.365	1	1	1_0.gif
47.002	1	4	0	4	0.397	4	1	4_0.gif
48.002	1	3	2	6	0	1	n/a	3_2.gif
49.002	1	1	2	6	0	4	n/a	1_2.gif
50.002	1	2	2	3	0.164	3	1	2_2.gif
51.002	1	3	2	5	0.007	1	n/a	3_2.gif
52.002	1	1	2	2	0.027	2	1	1_2.gif
53.002	1	2	2	3	0.028	3	1	2_2.gif
54.002	1	3	2	1	0.007	1	1	3_2.gif
55.002	1	4	2	2	0.007	2	1	4_2.gif
56.002	1	1	2	3	0.006	3	1	1_2.gif
57.002	1	2	2	4	0.008	4	1	2_2.gif
58.002	1	1	2	1	0.007	1	1	1_2.gif
59.002	1	4	2	2	0.006	2	1	4_2.gif
60.002	1	2	2	1	0.006	1	1	2_2.gif
61.002	1	4	2	4	0.007	4	1	4_2.gif
62.002	1	3	2	4	0.76	2	0	3_2.gif
63.002	1	1	2	3	0.906	4	0	1_2.gif
64.002	1	2	0	3	0.007	2	0	2_0.gif
65.002	1	1	0	2	0.007	1	0	1_0.gif
66.002	1	3	0	3	0.617	3	1	3_0.gif
67.004	1	1	0	1	0.426	1	1	1_0.gif
68.004	1	2	0	2	0.442	2	1	2_0.gif
69.004	1	3	0	3	0.425	3	1	3_0.gif
70.004	1	2	0	2	0.384	2	1	2_0.gif
71.004	1	4	0	4	0.387	4	1	4_0.gif
72.004	1	3	0	3	0.358	3	1	3_0.gif
73.004	1	4	0	4	0.392	4	1	4_0.gif
74.004	1	2	0	2	0.439	2	1	2_0.gif
75.004	1	4	0	4	0.408	4	1	4_0.gif
76.004	1	3	0	3	0.388	3	1	3_0.gif
77.004	1	4	0	4	0.403	4	1	4_0.gif
78.004	1	2	0	2	0.344	2	1	2_0.gif
79.004	1	1	0	1	0.383	1	1	1_0.gif
80.004	1	4	2	6	0	2	n/a	4_2.gif
81.004	1	3	2	6	0	1	n/a	3_2.gif
82.004	1	2	2	4	0.105	4	1	2_2.gif
83.004	1	3	2	3	0.007	3	1	3_2.gif
84.004	1	1	2	2	0.007	2	1	1_2.gif
85.004	1	3	2	1	0.757	3	0	3_2.gif
86.004	1	1	2	3	0.671	1	0	1_2.gif
87.004	1	2	2	6	0	3	n/a	2_2.gif
88.004	1	4	2	2	0.186	1	0	4_2.gif
89.004	1	2	2	2	0.352	2	1	2_2.gif
90.004	1	1	2	4	0.095	4	1	1_2.gif
91.004	1	3	2	2	0.108	2	1	3_2.gif
92.004	1	4	2	1	0.167	1	1	4_2.gif
93.004	1	1	2	3	0.175	3	1	1_2.gif
94.004	1	2	2	4	0.136	4	1	2_2.gif
95.004	1	1	2	1	0.135	1	1	1_2.gif
96.004	1	4	0	2	0.153	4	0	4_0.gif
97.004	1	3	0	3	0.66	3	1	3_0.gif
98.004	1	2	0	2	0.53	2	1	2_0.gif
99.004	1	3	0	3	0.439	3	1	3_0.gif
100.004	1	1	0	1	0.35	1	1	1_0.gif
101.004	1	4	0	4	0.341	4	1	4_0.gif
102.004	1	2	0	2	0.314	2	1	2_0.gif
103.004	1	3	0	3	0.362	3	1	3_0.gif
104.004	1	1	0	1	0.359	1	1	1_0.gif
105.004	1	4	0	4	0.34	4	1	4_0.gif
106.004	1	2	0	2	0.329	2	1	2_0.gif
107.004	1	1	0	1	0.268	1	1	1_0.gif
108.004	1	3	0	3	0.354	3	1	3_0.gif
109.005	1	1	0	1	0.312	1	1	1_0.gif
110.005	1	2	0	2	0.324	2	1	2_0.gif
111.005	1	4	0	4	0.392	4	1	4_0.gif
112.005	1	2	2	6	0	2	n/a	2_2.gif
113.005	1	3	2	6	0	4	n/a	3_2.gif
114.005	1	2	2	2	0.216	2	1	2_2.gif
115.005	1	3	2	3	0.007	3	1	3_2.gif
116.005	1	1	2	3	0.006	2	0	1_2.gif
117.005	1	3	2	3	0.006	3	1	3_2.gif
118.005	1	4	2	1	0.007	1	1	4_2.gif
119.005	1	1	2	3	0.006	3	1	1_2.gif
120.005	1	4	2	4	0.008	4	1	4_2.gif
121.005	1	1	2	1	0.007	1	1	1_2.gif
122.005	1	3	2	4	0.011	4	1	3_2.gif
123.005	1	4	2	1	0.059	1	1	4_2.gif
124.005	1	1	2	3	0.013	3	1	1_2.gif
125.005	1	3	2	4	0.007	4	1	3_2.gif
126.005	1	1	2	3	0.788	1	0	1_2.gif
127.005	1	2	2	6	0	3	n/a	2_2.gif
128.005	1	1	0	1	0.771	1	1	1_0.gif
129.005	1	2	0	2	0.509	2	1	2_0.gif
130.006	1	1	0	1	0.407	1	1	1_0.gif
131.006	1	4	0	4	0.484	4	1	4_0.gif
132.006	1	3	0	3	0.35	3	1	3_0.gif
133.006	1	4	0	4	0.458	4	1	4_0.gif
134.006	1	1	0	1	0.349	1	1	1_0.gif
135.006	1	3	0	3	0.417	3	1	3_0.gif
136.006	1	4	0	4	0.476	4	1	4_0.gif
137.006	1	1	0	1	0.424	1	1	1_0.gif
138.006	1	3	0	3	0.416	3	1	3_0.gif
139.006	1	1	0	1	0.502	1	1	1_0.gif
140.006	1	3	0	3	0.394	3	1	3_0.gif
141.006	1	4	0	4	0.42	4	1	4_0.gif
142.006	1	3	0	3	0.38	3	1	3_0.gif
143.006	1	1	0	1	0.358	1	1	1_0.gif
144.006	1	3	2	6	0	3	n/a	3_2.gif
145.006	1	1	2	6	0	1	n/a	1_2.gif
146.006	1	2	2	3	0.208	3	1	2_2.gif
147.006	1	1	2	1	0.128	1	1	1_2.gif
148.006	1	4	2	2	0.069	2	1	4_2.gif
149.006	1	3	2	1	0.139	1	1	3_2.gif
150.006	1	4	2	4	0.092	4	1	4_2.gif
151.006	1	1	2	3	0.11	3	1	1_2.gif
152.006	1	4	2	4	0.074	4	1	4_2.gif
153.006	1	2	2	1	0.079	1	1	2_2.gif
154.006	1	3	2	4	0.051	4	1	3_2.gif
155.007	1	1	2	2	0.124	2	1	1_2.gif
156.007	1	4	2	3	0.051	3	1	4_2.gif
157.007	1	1	2	5	0.006	1	n/a	1_2.gif
158.007	1	2	2	4	0.005	4	1	2_2.gif
159.007	1	4	2	1	0.035	1	1	4_2.gif
160.007	1	2	0	2	0.088	2	1	2_0.gif
161.007	1	4	0	2	0.006	4	0	4_0.gif
162.007	1	1	0	1	0.744	1	1	1_0.gif
163.007	1	4	0	4	0.672	4	1	4_0.gif
164.007	1	3	0	3	0.471	3	1	3_0.gif
165.007	1	1	0	1	0.419	1	1	1_0.gif
166.007	1	4	0	4	0.344	4	1	4_0.gif
167.007	1	2	0	2	0.293	2	1	2_0.gif
168.007	1	1	0	1	0.256	1	1	1_0.gif
169.007	1	2	0	2	0.425	2	1	2_0.gif
170.007	1	1	0	1	0.376	1	1	1_0.gif
171.007	1	3	0	3	0.398	3	1	3_0.gif
172.008	1	4	0	4	0.346	4	1	4_0.gif
173.008	1	2	0	2	0.327	2	1	2_0.gif
174.008	1	4	0	4	0.434	4	1	4_0.gif
175.008	1	1	0	1	0.319	1	1	1_0.gif
176.009	1	4	2	6	0	4	n/a	4_2.gif
177.009	1	1	2	6	0	1	n/a	1_2.gif
178.009	1	2	2	4	0.145	4	1	2_2.gif
179.009	1	3	2	1	0.029	1	1	3_2.gif
180.009	1	1	2	2	0.021	2	1	1_2.gif
181.009	1	3	2	3	0.029	3	1	3_2.gif
182.009	1	1	2	1	0.006	1	1	1_2.gif
183.009	1	4	2	1	0.856	3	0	4_2.gif
184.009	1	3	2	1	0.005	1	1	3_2.gif
185.009	1	4	2	4	0.006	4	1	4_2.gif
186.009	1	2	2	3	0.005	3	1	2_2.gif
187.009	1	4	2	2	0.058	4	0	4_2.gif
188.009	1	3	2	2	0.282	2	1	3_2.gif
189.009	1	4	2	4	0.129	4	1	4_2.gif
190.009	1	1	2	1	0.373	3	0	1_2.gif
191.009	1	3	2	6	0	4	n/a	3_2.gif
192.009	1	2	0	2	0.683	2	1	2_0.gif
193.009	1	4	0	4	0.485	4	1	4_0.gif
194.009	1	3	0	3	0.58	3	1	3_0.gif
195.009	1	1	0	1	0.588	1	1	1_0.gif
196.009	1	3	0	3	0.439	3	1	3_0.gif
197.009	1	2	0	2	0.364	2	1	2_0.gif
198.009	1	1	0	1	0.366	1	1	1_0.gif
199.009	1	4	0	4	0.381	4	1	4_0.gif
200.009	1	1	0	1	0.353	1	1	1_0.gif
201.009	1	2	0	2	0.408	2	1	2_0.gif
202.009	1	1	0	1	0.327	1	1	1_0.gif
203.009	1	2	0	2	0.424	2	1	2_0.gif
204.009	1	3	0	3	0.416	3	1	3_0.gif
205.009	1	1	0	1	0.398	1	1	1_0.gif
206.009	1	3	0	3	0.545	3	1	3_0.gif
207.009	1	4	0	4	0.527	4	1	4_0.gif
208.009	1	1	2	6	0	3	n/a	1_2.gif
209.01	1	3	2	6	0	4	n/a	3_2.gif
210.01	1	1	2	1	0.116	1	1	1_2.gif
211.01	1	4	2	3	0.06	3	1	4_2.gif
212.01	1	3	2	1	0.006	1	1	3_2.gif
213.01	1	1	2	4	0.006	4	1	1_2.gif
214.01	1	4	2	4	0.845	3	0	4_2.gif
215.01	1	2	2	6	0	1	n/a	2_2.gif
216.01	1	1	2	6	0	4	n/a	1_2.gif
217.01	1	3	2	2	0.145	2	1	3_2.gif
218.01	1	1	2	1	0.006	1	1	1_2.gif
219.01	1	3	2	3	0.005	3	1	3_2.gif
220.01	1	1	2	3	0.059	1	0	1_2.gif
221.01	1	4	2	6	0	3	n/a	4_2.gif
222.01	1	3	2	1	0.083	1	1	3_2.gif
223.01	1	4	2	3	0.006	4	0	4_2.gif
224.01	1	2	0	2	0.561	2	1	2_0.gif
225.011	1	4	0	4	0.453	4	1	4_0.gif
226.011	1	1	0	1	0.55	1	1	1_0.gif
227.011	1	3	0	3	0.335	3	1	3_0.gif
228.011	1	4	0	4	0.346	4	1	4_0.gif
229.011	1	2	0	2	0.259	2	1	2_0.gif
230.011	1	1	0	1	0.258	1	1	1_0.gif
231.011	1	2	0	2	0.404	2	1	2_0.gif
232.011	1	1	0	1	0.295	1	1	1_0.gif
233.011	1	2	0	2	0.361	2	1	2_0.gif
234.011	1	1	0	1	0.27	1	1	1_0.gif
235.011	1	3	0	3	0.432	3	1	3_0.gif
236.011	1	4	0	4	0.32	4	1	4_0.gif
237.011	1	1	0	1	0.339	1	1	1_0.gif
238.011	1	2	0	2	0.352	2	1	2_0.gif
239.011	1	4	0	4	0.399	4	1	4_0.gif
240.011	1	3	2	6	0	2	n/a	3_2.gif
241.011	1	1	2	6	0	4	n/a	1_2.gif
242.011	1	4	2	3	0.149	3	1	4_2.gif
243.011	1	3	2	1	0.041	1	1	3_2.gif
244.011	1	1	2	4	0.185	4	1	1_2.gif
245.011	1	2	2	3	0.187	3	1	2_2.gif
246.011	1	3	2	1	0.158	1	1	3_2.gif
247.011	1	1	2	2	0.185	2	1	1_2.gif
248.011	1	2	2	1	0.168	3	0	2_2.gif
249.011	1	3	2	2	0.283	1	0	3_2.gif
250.011	1	4	2	2	0.611	2	1	4_2.gif
251.011	1	1	2	3	0.492	3	1	1_2.gif
252.011	1	2	2	3	0.007	4	0	2_2.gif
253.011	1	1	2	1	0.028	1	1	1_2.gif
254.011	1	4	2	2	0.007	2	1	4_2.gif
255.011	1	2	2	4	0.007	1	0	2_2.gif
