onset	duration	nback_display	trial_type	response	response_time	correct_response	correct	stim_file
0	1.5	3	0	6	0	3	n/a	3_0.gif
1.5	1.5	4	0	4	1.294	4	1	4_0.gif
3	1.5	3	0	4	0.013	3	0	3_0.gif
4.5	1.5	4	0	6	0	4	n/a	4_0.gif
6	1.5	3	0	4	0.218	3	0	3_0.gif
7.5	1.5	4	0	4	0.619	4	1	4_0.gif
9	1.5	3	0	3	0.781	3	1	3_0.gif
10.5	1.5	2	0	2	0.855	2	1	2_0.gif
12	1.5	3	0	6	0	3	n/a	3_0.gif
13.5	1.5	4	0	4	0.538	4	1	4_0.gif
15	1.5	1	0	1	0.73	1	1	1_0.gif
16.5	1.5	2	0	2	0.85	2	1	2_0.gif
18	1.5	1	0	1	0.71	1	1	1_0.gif
19.5	1.5	2	0	2	0.435	2	1	2_0.gif
21	1.5	1	0	1	0.497	1	1	1_0.gif
22.5	1.5	4	0	4	0.821	4	1	4_0.gif
24	1.5	3	2	6	0	1	n/a	3_2.gif
25.561	1.5	2	2	6	0	4	n/a	2_2.gif
27.061	1.5	3	2	3	0.566	3	1	3_2.gif
28.567	1.5	4	2	2	0.252	2	1	4_2.gif
30.067	1.5	1	2	4	0.235	3	0	1_2.gif
31.567	1.5	2	2	1	0.449	4	0	2_2.gif
33.067	1.5	1	2	3	0.013	1	0	1_2.gif
34.567	1.5	4	2	4	0.015	2	0	4_2.gif
36.067	1.5	1	2	3	0.445	1	0	1_2.gif
37.567	1.5	2	2	2	0.188	4	0	2_2.gif
39.072	1.5	4	2	4	0.013	1	0	4_2.gif
40.572	1.5	1	2	3	0.403	2	0	1_2.gif
42.072	1.5	3	2	2	0.295	4	0	3_2.gif
43.572	1.5	4	2	4	0.505	1	0	4_2.gif
45.072	1.5	2	2	1	0.365	3	0	2_2.gif
46.572	1.5	1	2	3	0.252	4	0	1_2.gif
48.073	1.5	4	0	4	1.201	4	1	4_0.gif
49.573	1.5	3	0	4	0.013	3	0	3_0.gif
51.073	1.5	4	0	4	0.498	4	1	4_0.gif
52.573	1.5	2	0	2	0.68	2	1	2_0.gif
54.073	1.5	4	0	4	0.727	4	1	4_0.gif
55.573	1.5	3	0	3	0.66	3	1	3_0.gif
57.073	1.5	2	0	2	0.834	2	1	2_0.gif
58.573	1.5	3	0	3	0.664	3	1	3_0.gif
60.073	1.5	1	0	1	0.507	1	1	1_0.gif
61.573	1.5	2	0	2	0.632	2	1	2_0.gif
63.073	1.5	1	0	1	0.656	1	1	1_0.gif
64.573	1.5	3	0	3	0.601	3	1	3_0.gif
66.073	1.5	1	0	1	0.62	1	1	1_0.gif
67.573	1.5	2	0	6	0	2	n/a	2_0.gif
69.073	1.5	3	0	2	0.088	3	0	3_0.gif
70.573	1.5	1	0	1	0.717	1	1	1_0.gif
72.073	1.5	3	2	6	0	3	n/a	3_2.gif
73.573	1.5	4	2	6	0	1	n/a	4_2.gif
75.073	1.5	1	2	3	0.176	3	1	1_2.gif
76.573	1.5	3	2	2	0.789	4	0	3_2.gif
78.073	1.5	4	2	3	0.246	1	0	4_2.gif
79.573	1.5	3	2	4	0.015	3	0	3_2.gif
81.073	1.5	2	2	2	0.273	4	0	2_2.gif
82.573	1.5	4	2	3	0.014	3	1	4_2.gif
84.073	1.5	2	2	2	0.014	2	1	2_2.gif
85.574	1.5	1	2	6	0	4	n/a	1_2.gif
87.074	1.5	4	2	6	0	2	n/a	4_2.gif
88.574	1.5	2	2	2	1.283	1	0	2_2.gif
90.074	1.5	4	2	2	0.014	4	0	4_2.gif
91.574	1.5	2	2	6	0	2	n/a	2_2.gif
93.074	1.5	3	2	6	0	4	n/a	3_2.gif
94.574	1.5	1	2	6	0	2	n/a	1_2.gif
96.074	1.5	3	0	3	1.078	3	1	3_0.gif
97.574	1.5	4	0	3	0.013	4	0	4_0.gif
99.074	1.5	3	0	3	0.57	3	1	3_0.gif
100.574	1.5	1	0	1	0.718	1	1	1_0.gif
102.074	1.5	4	0	4	0.737	4	1	4_0.gif
103.574	1.5	2	0	2	1.008	2	1	2_0.gif
105.074	1.5	4	0	4	0.62	4	1	4_0.gif
106.574	1.5	2	0	2	0.588	2	1	2_0.gif
108.074	1.5	1	0	1	0.719	1	1	1_0.gif
109.574	1.5	4	0	4	0.8	4	1	4_0.gif
111.074	1.5	3	0	3	0.646	3	1	3_0.gif
112.574	1.5	4	0	4	0.607	4	1	4_0.gif
114.074	1.5	2	0	2	0.836	2	1	2_0.gif
115.574	1.5	1	0	1	0.777	1	1	1_0.gif
117.074	1.5	2	0	2	0.882	2	1	2_0.gif
118.574	1.5	3	0	3	0.743	3	1	3_0.gif
120.085	1.5	1	2	6	0	2	n/a	1_2.gif
121.585	1.5	2	2	1	1.372	3	0	2_2.gif
123.085	1.5	4	2	1	0.013	1	1	4_2.gif
124.585	1.5	2	2	4	0.815	2	0	2_2.gif
126.085	1.5	4	2	2	0.133	4	0	4_2.gif
127.585	1.5	1	2	1	0.013	2	0	1_2.gif
129.085	1.5	3	2	6	0	4	n/a	3_2.gif
130.585	1.5	1	2	6	0	1	n/a	1_2.gif
132.085	1.5	3	2	6	0	3	n/a	3_2.gif
133.585	1.5	4	2	1	1.34	1	1	4_2.gif
135.085	1.5	2	2	1	0.014	3	0	2_2.gif
136.585	1.5	3	2	4	1.232	4	1	3_2.gif
138.085	1.5	2	2	4	0.014	2	0	2_2.gif
139.585	1.5	1	2	1	0.357	3	0	1_2.gif
141.085	1.5	3	2	6	0	2	n/a	3_2.gif
142.585	1.5	1	2	4	1.2	1	0	1_2.gif
144.086	1.5	2	0	4	0.014	2	0	2_0.gif
145.586	1.5	4	0	4	0.846	4	1	4_0.gif
147.086	1.5	3	0	3	1.236	3	1	3_0.gif
148.586	1.5	1	0	3	0.013	1	0	1_0.gif
150.086	1.5	2	0	2	0.884	2	1	2_0.gif
151.586	1.5	1	0	1	0.73	1	1	1_0.gif
153.086	1.5	4	0	4	0.933	4	1	4_0.gif
154.586	1.5	1	0	1	0.855	1	1	1_0.gif
156.086	1.5	3	0	3	1.251	3	1	3_0.gif
157.586	1.5	1	0	3	0.013	1	0	1_0.gif
159.086	1.5	2	0	2	1.017	2	1	2_0.gif
160.586	1.5	3	0	3	1.36	3	1	3_0.gif
162.086	1.5	1	0	3	0.013	1	0	1_0.gif
163.586	1.5	2	0	2	0.857	2	1	2_0.gif
165.086	1.5	1	0	1	0.581	1	1	1_0.gif
166.586	1.5	3	0	3	0.478	3	1	3_0.gif
168.086	1.5	4	2	6	0	1	n/a	4_2.gif
169.586	1.5	2	2	6	0	3	n/a	2_2.gif
171.086	1.5	4	2	4	0.201	4	1	4_2.gif
172.586	1.5	1	2	4	1.465	2	0	1_2.gif
174.086	1.5	4	2	4	0.014	4	1	4_2.gif
175.586	1.5	2	2	4	0.502	1	0	2_2.gif
177.086	1.5	1	2	2	0.013	4	0	1_2.gif
178.586	1.5	2	2	6	0	2	n/a	2_2.gif
180.086	1.5	1	2	2	1.082	1	0	1_2.gif
181.586	1.5	2	2	1	0.229	2	0	2_2.gif
183.086	1.5	1	2	2	0.014	1	0	1_2.gif
184.586	1.5	3	2	1	0.797	2	0	3_2.gif
186.086	1.5	4	2	3	0.867	1	0	4_2.gif
187.586	1.5	1	2	4	0.509	3	0	1_2.gif
189.086	1.5	2	2	1	0.621	4	0	2_2.gif
190.586	1.5	4	2	2	0.793	1	0	4_2.gif
192.087	1.5	1	0	1	1.233	1	1	1_0.gif
193.587	1.5	4	0	1	0.013	4	0	4_0.gif
195.087	1.5	2	0	2	0.765	2	1	2_0.gif
196.587	1.5	3	0	3	0.488	3	1	3_0.gif
198.087	1.5	1	0	1	0.872	1	1	1_0.gif
199.587	1.5	2	0	2	0.699	2	1	2_0.gif
201.087	1.5	3	0	3	0.467	3	1	3_0.gif
202.587	1.5	4	0	4	0.328	4	1	4_0.gif
204.087	1.5	3	0	3	0.657	3	1	3_0.gif
205.587	1.5	1	0	1	0.775	1	1	1_0.gif
207.087	1.5	2	0	2	0.846	2	1	2_0.gif
208.587	1.5	1	0	1	0.802	1	1	1_0.gif
210.087	1.5	2	0	2	0.533	2	1	2_0.gif
211.587	1.5	1	0	1	0.628	1	1	1_0.gif
213.087	1.5	2	0	2	0.366	2	1	2_0.gif
214.587	1.5	1	0	1	0.382	1	1	1_0.gif
216.088	1.5	4	2	6	0	2	n/a	4_2.gif
217.588	1.5	2	2	6	0	1	n/a	2_2.gif
219.088	1.5	1	2	4	0.34	4	1	1_2.gif
220.588	1.5	4	2	2	0.013	2	1	4_2.gif
222.088	1.5	2	2	1	0.014	1	1	2_2.gif
223.588	1.5	1	2	4	0.013	4	1	1_2.gif
225.088	1.5	3	2	2	0.017	2	1	3_2.gif
226.588	1.5	2	2	1	0.013	1	1	2_2.gif
228.088	1.5	1	2	3	0.097	3	1	1_2.gif
229.588	1.5	2	2	2	0.013	2	1	2_2.gif
231.088	1.5	1	2	1	0.217	1	1	1_2.gif
232.588	1.5	3	2	2	0.014	2	1	3_2.gif
234.088	1.5	1	2	1	0.235	1	1	1_2.gif
235.588	1.5	3	2	3	0.451	3	1	3_2.gif
237.088	1.5	4	2	1	0.622	1	1	4_2.gif
238.588	1.5	2	2	3	0.336	3	1	2_2.gif
240.088	1.5	3	0	3	1.227	3	1	3_0.gif
241.588	1.5	4	0	4	0.866	4	1	4_0.gif
243.088	1.5	2	0	2	0.979	2	1	2_0.gif
244.588	1.5	4	0	4	0.789	4	1	4_0.gif
246.088	1.5	2	0	2	0.66	2	1	2_0.gif
247.588	1.5	4	0	4	0.526	4	1	4_0.gif
249.088	1.5	1	0	1	0.832	1	1	1_0.gif
250.588	1.5	2	0	2	1.154	2	1	2_0.gif
252.088	1.5	1	0	2	0.013	1	0	1_0.gif
253.588	1.5	4	0	4	0.714	4	1	4_0.gif
255.088	1.5	2	0	2	0.821	2	1	2_0.gif
256.588	1.5	3	0	3	0.781	3	1	3_0.gif
258.088	1.5	2	0	2	1.276	2	1	2_0.gif
259.588	1.5	3	0	2	0.014	3	0	3_0.gif
261.088	1.5	4	0	4	0.704	4	1	4_0.gif
262.588	1.5	3	0	3	0.575	3	1	3_0.gif
264.089	1.5	4	2	6	0	4	n/a	4_2.gif
265.589	1.5	2	2	6	0	3	n/a	2_2.gif
267.089	1.5	3	2	4	0.233	4	1	3_2.gif
268.589	1.5	1	2	2	0.013	2	1	1_2.gif
270.089	1.5	2	2	1	0.19	3	0	2_2.gif
271.589	1.5	4	2	3	0.013	1	0	4_2.gif
273.089	1.5	3	2	2	0.096	2	1	3_2.gif
274.589	1.5	4	2	4	0.018	4	1	4_2.gif
276.089	1.5	2	2	1	0.423	3	0	2_2.gif
277.589	1.5	3	2	4	0.511	4	1	3_2.gif
279.089	1.5	4	2	2	0.57	2	1	4_2.gif
280.589	1.5	1	2	3	0.24	3	1	1_2.gif
282.089	1.5	4	2	4	0.199	4	1	4_2.gif
283.589	1.5	3	2	1	0.422	1	1	3_2.gif
285.089	1.5	2	2	3	0.278	4	0	2_2.gif
286.589	1.5	1	2	6	0	3	n/a	1_2.gif
288.089	1.5	4	0	4	1.385	4	1	4_0.gif
289.589	1.5	1	0	4	0.014	1	0	1_0.gif
291.089	1.5	4	0	1	0.013	4	0	4_0.gif
292.589	1.5	2	0	2	0.776	2	1	2_0.gif
294.089	1.5	1	0	1	0.79	1	1	1_0.gif
295.589	1.5	2	0	2	0.993	2	1	2_0.gif
297.089	1.5	3	0	6	0	3	n/a	3_0.gif
298.589	1.5	2	0	2	0.934	2	1	2_0.gif
300.089	1.5	4	0	4	0.865	4	1	4_0.gif
301.589	1.5	2	0	2	0.813	2	1	2_0.gif
303.089	1.5	4	0	4	0.59	4	1	4_0.gif
304.589	1.5	3	0	6	0	3	n/a	3_0.gif
306.089	1.5	4	0	4	0.443	4	1	4_0.gif
307.589	1.5	3	0	6	0	3	n/a	3_0.gif
309.089	1.5	4	0	4	0.348	4	1	4_0.gif
310.589	1.5	3	0	6	0	3	n/a	3_0.gif
312.09	1.5	4	2	6	0	4	n/a	4_2.gif
313.59	1.5	3	2	6	0	3	n/a	3_2.gif
315.09	1.5	2	2	4	0.245	4	1	2_2.gif
316.59	1.5	3	2	3	0.014	3	1	3_2.gif
318.09	1.5	4	2	2	0.333	2	1	4_2.gif
319.59	1.5	1	2	3	0.04	3	1	1_2.gif
321.09	1.5	2	2	4	0.014	4	1	2_2.gif
322.59	1.5	1	2	1	0.014	1	1	1_2.gif
324.09	1.5	2	2	2	0.014	2	1	2_2.gif
325.59	1.5	1	2	1	0.014	1	1	1_2.gif
327.09	1.5	4	2	2	0.514	2	1	4_2.gif
328.59	1.5	3	2	1	0.247	1	1	3_2.gif
330.09	1.5	2	2	4	0.094	4	1	2_2.gif
331.59	1.5	3	2	3	0.013	3	1	3_2.gif
333.09	1.5	4	2	2	0.014	2	1	4_2.gif
334.59	1.5	1	2	3	0.015	3	1	1_2.gif
336.091	1.5	2	0	4	0.013	2	0	2_0.gif
337.591	1.5	1	0	2	0.014	1	0	1_0.gif
339.091	1.5	4	0	4	0.609	4	1	4_0.gif
340.591	1.5	1	0	1	0.586	1	1	1_0.gif
342.091	1.5	2	0	2	0.616	2	1	2_0.gif
343.591	1.5	4	0	4	0.659	4	1	4_0.gif
345.091	1.5	1	0	1	1.08	1	1	1_0.gif
346.591	1.5	3	0	1	0.013	3	0	3_0.gif
348.091	1.5	4	0	4	0.858	4	1	4_0.gif
349.591	1.5	2	0	2	0.511	2	1	2_0.gif
351.091	1.5	1	0	1	0.663	1	1	1_0.gif
352.591	1.5	4	0	4	0.936	4	1	4_0.gif
354.091	1.5	3	0	3	0.679	3	1	3_0.gif
355.591	1.5	4	0	4	0.625	4	1	4_0.gif
357.091	1.5	2	0	2	0.574	2	1	2_0.gif
358.591	1.5	4	0	4	0.471	4	1	4_0.gif
360.091	1.5	3	2	6	0	2	n/a	3_2.gif
361.592	1.5	2	2	6	0	4	n/a	2_2.gif
363.092	1.5	3	2	3	0.395	3	1	3_2.gif
364.592	1.5	1	2	2	0.013	2	1	1_2.gif
366.092	1.5	2	2	3	0.265	3	1	2_2.gif
367.592	1.5	1	2	1	0.199	1	1	1_2.gif
369.092	1.5	3	2	2	0.217	2	1	3_2.gif
370.592	1.5	1	2	1	0.013	1	1	1_2.gif
372.092	1.5	2	2	3	0.013	3	1	2_2.gif
373.592	1.5	3	2	2	0.077	1	0	3_2.gif
375.092	1.5	1	2	2	0.397	2	1	1_2.gif
376.592	1.5	3	2	1	0.484	3	0	3_2.gif
378.092	1.5	4	2	3	1.04	1	0	4_2.gif
379.592	1.5	1	2	2	0.238	3	0	1_2.gif
381.092	1.5	3	2	4	0.208	4	1	3_2.gif
382.592	1.5	4	2	1	0.014	1	1	4_2.gif
