onset	duration	nback_display	trial_type	response	response_time	correct_response	correct	stim_file
0	1	1	0	1	0.633	1	1	1_0.gif
1	1	4	0	4	0.928	4	1	4_0.gif
2	1	3	0	4	0.003	3	0	3_0.gif
3	1	2	0	2	0.312	2	1	2_0.gif
4	1	4	0	4	0.485	4	1	4_0.gif
5	1	1	0	1	0.393	1	1	1_0.gif
6	1	2	0	2	0.549	2	1	2_0.gif
7	1	4	0	4	0.489	4	1	4_0.gif
8	1	2	0	2	0.484	2	1	2_0.gif
9	1	3	0	3	0.419	3	1	3_0.gif
10	1	4	0	4	0.588	4	1	4_0.gif
11	1	3	0	6	0	3	n/a	3_0.gif
12	1	4	0	4	0.625	4	1	4_0.gif
13	1	3	0	3	0.47	3	1	3_0.gif
14	1	1	0	1	0.455	1	1	1_0.gif
15	1	4	0	4	0.506	4	1	4_0.gif
16	1	2	2	6	0	1	n/a	2_2.gif
17	1	1	2	6	0	4	n/a	1_2.gif
18.001	1	4	2	2	0.754	2	1	4_2.gif
19.001	1	2	2	1	0.757	1	1	2_2.gif
20.001	1	3	2	4	0.714	4	1	3_2.gif
21.001	1	2	2	2	0.736	2	1	2_2.gif
22.001	1	3	2	1	0.64	3	0	3_2.gif
23.001	1	4	2	3	0.857	2	0	4_2.gif
24.001	1	1	2	3	0.003	3	1	1_2.gif
25.001	1	2	2	2	0.003	4	0	2_2.gif
26.001	1	3	2	3	0.046	1	0	3_2.gif
27.001	1	4	2	2	0.095	2	1	4_2.gif
28.001	1	3	2	4	0.068	3	0	3_2.gif
29.001	1	2	2	1	0.034	4	0	2_2.gif
30.001	1	3	2	4	0.05	3	0	3_2.gif
31.001	1	4	2	6	0	2	n/a	4_2.gif
32.001	1	2	0	2	0.722	2	1	2_0.gif
33.001	1	3	0	3	0.693	3	1	3_0.gif
34.001	1	1	0	1	0.564	1	1	1_0.gif
35.001	1	2	0	2	0.421	2	1	2_0.gif
36.001	1	1	0	1	0.523	1	1	1_0.gif
37.001	1	3	0	3	0.515	3	1	3_0.gif
38.001	1	4	0	4	0.47	4	1	4_0.gif
39.001	1	3	0	3	0.444	3	1	3_0.gif
40.001	1	4	0	4	0.552	4	1	4_0.gif
41.001	1	2	0	2	0.376	2	1	2_0.gif
42.001	1	1	0	1	0.349	1	1	1_0.gif
43.001	1	3	0	3	0.421	3	1	3_0.gif
44.001	1	4	0	4	0.237	4	1	4_0.gif
45.001	1	3	0	3	0.387	3	1	3_0.gif
46.001	1	2	0	2	0.359	2	1	2_0.gif
47.001	1	1	0	1	0.248	1	1	1_0.gif
48.001	1	3	2	3	0.36	2	0	3_2.gif
49.001	1	1	2	6	0	1	n/a	1_2.gif
50.001	1	2	2	3	0.335	3	1	2_2.gif
51.001	1	3	2	1	0.205	1	1	3_2.gif
52.001	1	1	2	2	0.209	2	1	1_2.gif
53.001	1	2	2	3	0.599	3	1	2_2.gif
54.001	1	1	2	6	0	1	n/a	1_2.gif
55.001	1	4	2	2	0.299	2	1	4_2.gif
56.001	1	2	2	1	0.726	1	1	2_2.gif
57.001	1	3	2	6	0	4	n/a	3_2.gif
58.001	1	2	2	2	0.186	2	1	2_2.gif
59.001	1	4	2	3	0.564	3	1	4_2.gif
60.001	1	1	2	2	0.749	2	1	1_2.gif
61.001	1	4	2	4	0.637	4	1	4_2.gif
62.001	1	1	2	1	0.578	1	1	1_2.gif
63.001	1	3	2	4	0.735	4	1	3_2.gif
64.002	1	1	0	1	0.826	1	1	1_0.gif
65.002	1	3	0	1	0.003	3	0	3_0.gif
66.002	1	2	0	3	0.003	2	0	2_0.gif
67.002	1	3	0	2	0.044	3	0	3_0.gif
68.002	1	4	0	4	0.41	4	1	4_0.gif
69.002	1	1	0	1	0.333	1	1	1_0.gif
70.002	1	2	0	2	0.269	2	1	2_0.gif
71.002	1	4	0	4	0.509	4	1	4_0.gif
72.002	1	3	0	3	0.266	3	1	3_0.gif
73.002	1	1	0	1	0.247	1	1	1_0.gif
74.002	1	3	0	3	0.413	3	1	3_0.gif
75.002	1	4	0	4	0.311	4	1	4_0.gif
76.002	1	1	0	1	0.378	1	1	1_0.gif
77.002	1	3	0	3	0.331	3	1	3_0.gif
78.002	1	2	0	2	0.392	2	1	2_0.gif
79.002	1	3	0	3	0.387	3	1	3_0.gif
80.002	1	4	2	6	0	2	n/a	4_2.gif
81.002	1	3	2	6	0	3	n/a	3_2.gif
82.002	1	1	2	4	0.919	4	1	1_2.gif
83.002	1	2	2	4	0.003	3	0	2_2.gif
84.002	1	4	2	6	0	1	n/a	4_2.gif
85.002	1	1	2	1	0.067	2	0	1_2.gif
86.002	1	4	2	4	0.193	4	1	4_2.gif
87.002	1	3	2	1	0.172	1	1	3_2.gif
88.002	1	2	2	4	0.003	4	1	2_2.gif
89.002	1	1	2	6	0	3	n/a	1_2.gif
90.002	1	4	2	6	0	2	n/a	4_2.gif
91.002	1	2	2	2	0.658	1	0	2_2.gif
92.002	1	1	2	1	0.043	4	0	1_2.gif
93.002	1	2	2	4	0.004	2	0	2_2.gif
94.002	1	4	2	2	0.394	1	0	4_2.gif
95.002	1	3	2	1	0.004	2	0	3_2.gif
96.003	1	2	0	4	0.003	2	0	2_0.gif
97.003	1	3	0	3	0.913	3	1	3_0.gif
98.003	1	1	0	3	0.003	1	0	1_0.gif
99.003	1	2	0	2	0.442	2	1	2_0.gif
100.003	1	4	0	4	0.511	4	1	4_0.gif
101.003	1	1	0	1	0.483	1	1	1_0.gif
102.003	1	3	0	3	0.364	3	1	3_0.gif
103.003	1	4	0	4	0.5	4	1	4_0.gif
104.003	1	3	0	3	0.676	3	1	3_0.gif
105.003	1	4	0	4	0.721	4	1	4_0.gif
106.003	1	2	0	2	0.566	2	1	2_0.gif
107.003	1	4	0	4	0.639	4	1	4_0.gif
108.003	1	2	0	2	0.408	2	1	2_0.gif
109.003	1	3	0	3	0.342	3	1	3_0.gif
110.003	1	2	0	2	0.412	2	1	2_0.gif
111.003	1	4	0	4	0.429	4	1	4_0.gif
112.003	1	2	2	6	0	2	n/a	2_2.gif
113.003	1	4	2	6	0	4	n/a	4_2.gif
114.003	1	3	2	2	0.747	2	1	3_2.gif
115.003	1	4	2	4	0.889	4	1	4_2.gif
116.003	1	3	2	4	0.003	3	0	3_2.gif
117.003	1	1	2	4	0.586	4	1	1_2.gif
118.003	1	2	2	6	0	3	n/a	2_2.gif
119.003	1	3	2	3	0.355	1	0	3_2.gif
120.003	1	4	2	1	0.003	2	0	4_2.gif
121.003	1	2	2	6	0	3	n/a	2_2.gif
122.003	1	3	2	3	0.219	4	0	3_2.gif
123.003	1	4	2	2	0.104	2	1	4_2.gif
124.003	1	3	2	4	0.022	3	0	3_2.gif
125.003	1	4	2	4	0.688	4	1	4_2.gif
126.003	1	2	2	3	0.311	3	1	2_2.gif
127.003	1	1	2	4	0.005	4	1	1_2.gif
128.005	1	3	0	3	0.724	3	1	3_0.gif
129.005	1	4	0	3	0.003	4	0	4_0.gif
130.005	1	3	0	3	0.365	3	1	3_0.gif
131.005	1	4	0	4	0.6	4	1	4_0.gif
132.005	1	2	0	2	0.389	2	1	2_0.gif
133.005	1	3	0	3	0.388	3	1	3_0.gif
134.005	1	4	0	4	0.428	4	1	4_0.gif
135.005	1	2	0	2	0.314	2	1	2_0.gif
136.005	1	4	0	4	0.567	4	1	4_0.gif
137.005	1	3	0	3	0.492	3	1	3_0.gif
138.005	1	2	0	2	0.347	2	1	2_0.gif
139.005	1	4	0	4	0.508	4	1	4_0.gif
140.005	1	2	0	2	0.477	2	1	2_0.gif
141.005	1	1	0	1	0.455	1	1	1_0.gif
142.005	1	4	0	4	0.534	4	1	4_0.gif
143.005	1	2	0	2	0.422	2	1	2_0.gif
144.005	1	4	2	6	0	4	n/a	4_2.gif
145.005	1	3	2	6	0	2	n/a	3_2.gif
146.005	1	1	2	4	0.949	4	1	1_2.gif
147.005	1	3	2	4	0.003	3	0	3_2.gif
148.005	1	1	2	3	0.003	1	0	1_2.gif
149.005	1	2	2	3	0.745	3	1	2_2.gif
150.005	1	4	2	1	0.803	1	1	4_2.gif
151.005	1	1	2	2	0.752	2	1	1_2.gif
152.005	1	2	2	4	0.665	4	1	2_2.gif
153.005	1	4	2	1	0.809	1	1	4_2.gif
154.005	1	1	2	2	0.707	2	1	1_2.gif
155.005	1	4	2	4	0.722	4	1	4_2.gif
156.005	1	2	2	4	0.003	1	0	2_2.gif
157.005	1	3	2	2	0.684	4	0	3_2.gif
158.005	1	4	2	6	0	2	n/a	4_2.gif
159.005	1	3	2	4	0.806	3	0	3_2.gif
160.006	1	2	0	4	0.003	2	0	2_0.gif
161.006	1	4	0	2	0.003	4	0	4_0.gif
162.006	1	1	0	4	0.003	1	0	1_0.gif
163.006	1	4	0	4	0.465	4	1	4_0.gif
164.006	1	1	0	1	0.422	1	1	1_0.gif
165.006	1	3	0	3	0.301	3	1	3_0.gif
166.006	1	2	0	2	0.275	2	1	2_0.gif
167.006	1	3	0	3	0.293	3	1	3_0.gif
168.006	1	4	0	4	0.432	4	1	4_0.gif
169.006	1	1	0	1	0.329	1	1	1_0.gif
170.006	1	2	0	2	0.328	2	1	2_0.gif
171.007	1	4	0	4	0.608	4	1	4_0.gif
172.007	1	2	0	2	0.426	2	1	2_0.gif
173.007	1	4	0	4	0.451	4	1	4_0.gif
174.007	1	2	0	2	0.446	2	1	2_0.gif
175.007	1	4	0	4	0.462	4	1	4_0.gif
176.008	1	1	2	6	0	2	n/a	1_2.gif
177.008	1	2	2	6	0	4	n/a	2_2.gif
178.008	1	3	2	1	0.595	1	1	3_2.gif
179.008	1	2	2	2	0.415	2	1	2_2.gif
180.008	1	4	2	3	0.374	3	1	4_2.gif
181.008	1	3	2	2	0.411	2	1	3_2.gif
182.008	1	2	2	3	0.341	4	0	2_2.gif
183.008	1	3	2	4	0.317	3	0	3_2.gif
184.008	1	2	2	2	0.514	2	1	2_2.gif
185.008	1	4	2	3	0.657	3	1	4_2.gif
186.008	1	2	2	2	0.912	2	1	2_2.gif
187.008	1	4	2	2	0.003	4	0	4_2.gif
188.008	1	1	2	4	0.003	2	0	1_2.gif
189.008	1	4	2	2	0.003	4	0	4_2.gif
190.008	1	2	2	1	0.003	1	1	2_2.gif
191.008	1	1	2	4	0.536	4	1	1_2.gif
192.008	1	4	0	4	0.813	4	1	4_0.gif
193.008	1	3	0	4	0.003	3	0	3_0.gif
194.008	1	2	0	3	0.003	2	0	2_0.gif
195.008	1	4	0	2	0.115	4	0	4_0.gif
196.008	1	1	0	4	0.003	1	0	1_0.gif
197.008	1	2	0	2	0.388	2	1	2_0.gif
198.008	1	4	0	4	0.476	4	1	4_0.gif
199.008	1	2	0	2	0.482	2	1	2_0.gif
200.008	1	3	0	3	0.454	3	1	3_0.gif
201.008	1	4	0	4	0.608	4	1	4_0.gif
202.008	1	3	0	3	0.53	3	1	3_0.gif
203.008	1	4	0	4	0.567	4	1	4_0.gif
204.008	1	3	0	3	0.435	3	1	3_0.gif
205.008	1	1	0	1	0.369	1	1	1_0.gif
206.008	1	4	0	4	0.47	4	1	4_0.gif
207.008	1	2	0	2	0.339	2	1	2_0.gif
208.008	1	1	2	6	0	4	n/a	1_2.gif
209.009	1	4	2	6	0	2	n/a	4_2.gif
210.009	1	2	2	1	0.476	1	1	2_2.gif
211.009	1	3	2	4	0.188	4	1	3_2.gif
212.009	1	2	2	2	0.02	2	1	2_2.gif
213.009	1	3	2	3	0.103	3	1	3_2.gif
214.009	1	4	2	6	0	2	n/a	4_2.gif
215.009	1	1	2	6	0	3	n/a	1_2.gif
216.009	1	2	2	4	0.987	4	1	2_2.gif
217.009	1	3	2	4	0.003	1	0	3_2.gif
218.009	1	4	2	2	0.451	2	1	4_2.gif
219.009	1	3	2	3	0.135	3	1	3_2.gif
220.009	1	2	2	4	0.003	4	1	2_2.gif
221.009	1	3	2	3	0.003	3	1	3_2.gif
222.009	1	4	2	3	0.51	2	0	4_2.gif
223.009	1	2	2	4	0.328	3	0	2_2.gif
224.009	1	3	0	6	0	3	n/a	3_0.gif
225.009	1	1	0	3	0.324	1	0	1_0.gif
226.009	1	2	0	1	0.174	2	0	2_0.gif
227.009	1	1	0	1	0.684	1	1	1_0.gif
228.009	1	3	0	3	0.45	3	1	3_0.gif
229.009	1	4	0	4	0.219	4	1	4_0.gif
230.009	1	3	0	3	0.308	3	1	3_0.gif
231.009	1	4	0	4	0.457	4	1	4_0.gif
232.009	1	2	0	2	0.309	2	1	2_0.gif
233.009	1	1	0	1	0.269	1	1	1_0.gif
234.009	1	3	0	3	0.246	3	1	3_0.gif
235.009	1	4	0	4	0.34	4	1	4_0.gif
236.009	1	3	0	3	0.448	3	1	3_0.gif
237.009	1	2	0	2	0.406	2	1	2_0.gif
238.009	1	1	0	1	0.587	1	1	1_0.gif
239.009	1	3	0	3	0.668	3	1	3_0.gif
240.009	1	1	2	6	0	1	n/a	1_2.gif
241.009	1	2	2	6	0	3	n/a	2_2.gif
242.009	1	3	2	1	0.786	1	1	3_2.gif
243.009	1	1	2	2	0.629	2	1	1_2.gif
244.009	1	2	2	3	0.322	3	1	2_2.gif
245.009	1	1	2	1	0.697	1	1	1_2.gif
246.009	1	4	2	2	0.258	2	1	4_2.gif
247.009	1	2	2	1	0.075	1	1	2_2.gif
248.009	1	3	2	4	0.003	4	1	3_2.gif
249.009	1	2	2	2	0.114	2	1	2_2.gif
250.009	1	4	2	2	0.777	3	0	4_2.gif
251.009	1	1	2	4	0.715	2	0	1_2.gif
252.009	1	4	2	1	0.594	4	0	4_2.gif
253.009	1	1	2	6	0	1	n/a	1_2.gif
254.009	1	3	2	1	0.871	4	0	3_2.gif
255.009	1	1	2	6	0	1	n/a	1_2.gif
