onset	duration	nback_display	trial_type	response	response_time	correct_response	correct	stim_file
0	1	3	0	6	0	3	n/a	3_0.gif
1	1	4	0	3	0.109	4	0	4_0.gif
2	1	3	0	3	0.493	3	1	3_0.gif
3	1	2	0	2	0.595	2	1	2_0.gif
4	1	3	0	3	0.472	3	1	3_0.gif
5	1	4	0	4	0.59	4	1	4_0.gif
6	1	3	0	3	0.539	3	1	3_0.gif
7	1	4	0	4	0.628	4	1	4_0.gif
8	1	1	0	1	0.519	1	1	1_0.gif
9	1	2	0	2	0.522	2	1	2_0.gif
10	1	1	0	1	0.524	1	1	1_0.gif
11	1	2	0	2	0.452	2	1	2_0.gif
12	1	1	0	1	0.418	1	1	1_0.gif
13	1	2	0	2	0.435	2	1	2_0.gif
14	1	4	0	4	0.52	4	1	4_0.gif
15	1	3	0	3	0.371	3	1	3_0.gif
16	1	2	2	6	0	4	n/a	2_2.gif
17	1	4	2	6	0	3	n/a	4_2.gif
18	1	1	2	2	0.441	2	1	1_2.gif
19	1	3	2	4	0.378	4	1	3_2.gif
20	1	4	2	1	0.359	1	1	4_2.gif
21	1	1	2	3	0.427	3	1	1_2.gif
22	1	2	2	4	0.367	4	1	2_2.gif
23	1	3	2	1	0.39	1	1	3_2.gif
24	1	1	2	2	0.343	2	1	1_2.gif
25	1	2	2	3	0.874	3	1	2_2.gif
26	1	1	2	3	0.003	1	0	1_2.gif
27	1	2	2	1	0.003	2	0	2_2.gif
28	1	4	2	6	0	1	n/a	4_2.gif
29	1	2	2	6	0	2	n/a	2_2.gif
30	1	1	2	6	0	4	n/a	1_2.gif
31	1	4	2	6	0	2	n/a	4_2.gif
32	1	3	0	2	0.345	3	0	3_0.gif
33	1	4	0	3	0.134	4	0	4_0.gif
34	1	2	0	2	0.603	2	1	2_0.gif
35	1	4	0	6	0	4	n/a	4_0.gif
36	1	3	0	3	0.521	3	1	3_0.gif
37	1	2	0	2	0.517	2	1	2_0.gif
38	1	3	0	3	0.459	3	1	3_0.gif
39	1	1	0	1	0.552	1	1	1_0.gif
40	1	2	0	2	0.491	2	1	2_0.gif
41	1	3	0	3	0.453	3	1	3_0.gif
42	1	4	0	4	0.428	4	1	4_0.gif
43	1	3	0	3	0.571	3	1	3_0.gif
44	1	1	0	1	0.624	1	1	1_0.gif
45	1	2	0	2	0.526	2	1	2_0.gif
46	1	1	0	1	0.481	1	1	1_0.gif
47	1	3	0	3	0.416	3	1	3_0.gif
48	1	1	2	6	0	1	n/a	1_2.gif
49	1	3	2	6	0	3	n/a	3_2.gif
50	1	1	2	1	0.721	1	1	1_2.gif
51	1	3	2	1	0.003	3	0	3_2.gif
52	1	4	2	3	0.003	1	0	4_2.gif
53	1	3	2	1	0.225	3	0	3_2.gif
54	1	2	2	6	0	4	n/a	2_2.gif
55	1	4	2	4	0.22	3	0	4_2.gif
56	1	2	2	6	0	2	n/a	2_2.gif
57	1	4	2	6	0	4	n/a	4_2.gif
58	1	2	2	4	0.284	2	0	2_2.gif
59	1	4	2	6	0	4	n/a	4_2.gif
60	1	3	2	2	0.007	2	1	3_2.gif
61	1	4	2	4	0.204	4	1	4_2.gif
62	1	3	2	3	0.705	3	1	3_2.gif
63	1	4	2	3	0.003	4	0	4_2.gif
64	1	3	0	3	0.795	3	1	3_0.gif
65	1	1	0	3	0.004	1	0	1_0.gif
66	1	4	0	1	0.004	4	0	4_0.gif
67	1	2	0	2	0.594	2	1	2_0.gif
68	1	4	0	6	0	4	n/a	4_0.gif
69	1	2	0	2	0.387	2	1	2_0.gif
70	1	1	0	1	0.588	1	1	1_0.gif
71	1	4	0	4	0.426	4	1	4_0.gif
72	1	3	0	3	0.369	3	1	3_0.gif
73	1	4	0	6	0	4	n/a	4_0.gif
74	1	2	0	2	0.32	2	1	2_0.gif
75	1	1	0	1	0.428	1	1	1_0.gif
76	1	2	0	2	0.419	2	1	2_0.gif
77	1	3	0	4	0.454	3	0	3_0.gif
78	1	1	0	3	0.004	1	0	1_0.gif
79	1	3	0	3	0.515	3	1	3_0.gif
80.001	1	2	2	6	0	1	n/a	2_2.gif
81.001	1	3	2	6	0	3	n/a	3_2.gif
82.001	1	2	2	2	0.393	2	1	2_2.gif
83.001	1	4	2	3	0.714	3	1	4_2.gif
84.001	1	1	2	3	0.003	2	0	1_2.gif
85.001	1	2	2	6	0	4	n/a	2_2.gif
86.001	1	1	2	1	0.723	1	1	1_2.gif
87.001	1	3	2	1	0.003	2	0	3_2.gif
88.001	1	4	2	2	0.155	1	0	4_2.gif
89.001	1	2	2	6	0	3	n/a	2_2.gif
90.001	1	3	2	6	0	4	n/a	3_2.gif
91.001	1	2	2	4	0.278	2	0	2_2.gif
92.001	1	1	2	2	0.003	3	0	1_2.gif
93.001	1	3	2	6	0	2	n/a	3_2.gif
94.001	1	2	2	6	0	1	n/a	2_2.gif
95.001	1	4	2	3	0.87	3	1	4_2.gif
96.001	1	3	0	3	0.003	3	1	3_0.gif
97.001	1	4	0	3	0.003	4	0	4_0.gif
98.001	1	1	0	1	0.558	1	1	1_0.gif
99.001	1	2	0	2	0.369	2	1	2_0.gif
100.001	1	1	0	1	0.51	1	1	1_0.gif
101.001	1	4	0	6	0	4	n/a	4_0.gif
102.001	1	1	0	1	0.436	1	1	1_0.gif
103.001	1	3	0	3	0.557	3	1	3_0.gif
104.001	1	4	0	6	0	4	n/a	4_0.gif
105.001	1	2	0	2	0.459	2	1	2_0.gif
106.001	1	3	0	3	0.476	3	1	3_0.gif
107.001	1	1	0	1	0.315	1	1	1_0.gif
108.001	1	2	0	2	0.361	2	1	2_0.gif
109.001	1	1	0	1	0.491	1	1	1_0.gif
110.001	1	3	0	3	0.524	3	1	3_0.gif
111.001	1	4	0	6	0	4	n/a	4_0.gif
112.001	1	2	2	2	0.375	3	0	2_2.gif
113.001	1	4	2	6	0	4	n/a	4_2.gif
114.001	1	1	2	2	0.494	2	1	1_2.gif
115.001	1	3	2	6	0	4	n/a	3_2.gif
116.001	1	1	2	1	0.206	1	1	1_2.gif
117.001	1	2	2	3	0.025	3	1	2_2.gif
118.001	1	1	2	1	0.003	1	1	1_2.gif
119.001	1	2	2	2	0.003	2	1	2_2.gif
120.001	1	1	2	1	0.003	1	1	1_2.gif
121.001	1	3	2	6	0	2	n/a	3_2.gif
122.001	1	4	2	6	0	1	n/a	4_2.gif
123.001	1	1	2	1	0.768	3	0	1_2.gif
124.001	1	2	2	1	0.003	4	0	2_2.gif
125.001	1	4	2	6	0	1	n/a	4_2.gif
126.001	1	1	2	6	0	2	n/a	1_2.gif
127.001	1	4	2	1	0.692	4	0	4_2.gif
128.001	1	3	0	1	0.003	3	0	3_0.gif
129.001	1	1	0	3	0.172	1	0	1_0.gif
130.001	1	2	0	1	0.165	2	0	2_0.gif
131.001	1	3	0	2	0.074	3	0	3_0.gif
132.001	1	4	0	4	0.392	4	1	4_0.gif
133.001	1	3	0	3	0.399	3	1	3_0.gif
134.001	1	1	0	1	0.325	1	1	1_0.gif
135.001	1	2	0	2	0.391	2	1	2_0.gif
136.001	1	1	0	1	0.488	1	1	1_0.gif
137.001	1	2	0	2	0.585	2	1	2_0.gif
138.001	1	1	0	1	0.363	1	1	1_0.gif
139.001	1	2	0	2	0.336	2	1	2_0.gif
140.001	1	1	0	1	0.318	1	1	1_0.gif
141.001	1	2	0	2	0.294	2	1	2_0.gif
142.001	1	1	0	1	0.329	1	1	1_0.gif
143.001	1	4	0	2	0.258	4	0	4_0.gif
144.001	1	3	2	6	0	1	n/a	3_2.gif
145.001	1	1	2	6	0	4	n/a	1_2.gif
146.001	1	3	2	3	0.192	3	1	3_2.gif
147.001	1	2	2	1	0.657	1	1	2_2.gif
148.001	1	1	2	1	0.003	3	0	1_2.gif
149.001	1	2	2	2	0.315	2	1	2_2.gif
150.001	1	4	2	6	0	1	n/a	4_2.gif
151.001	1	2	2	2	0.755	2	1	2_2.gif
152.001	1	3	2	2	0.003	4	0	3_2.gif
153.001	1	1	2	6	0	2	n/a	1_2.gif
154.001	1	3	2	6	0	3	n/a	3_2.gif
155.001	1	4	2	6	0	1	n/a	4_2.gif
156.001	1	2	2	3	0.463	3	1	2_2.gif
157.001	1	3	2	6	0	4	n/a	3_2.gif
158.001	1	4	2	6	0	2	n/a	4_2.gif
159.001	1	2	2	2	0.139	3	0	2_2.gif
160.002	1	4	0	6	0	4	n/a	4_0.gif
161.002	1	2	0	2	0.641	2	1	2_0.gif
162.002	1	4	0	2	0.003	4	0	4_0.gif
163.002	1	1	0	1	0.497	1	1	1_0.gif
164.002	1	2	0	2	0.383	2	1	2_0.gif
165.002	1	1	0	1	0.482	1	1	1_0.gif
166.002	1	4	0	6	0	4	n/a	4_0.gif
167.002	1	2	0	2	0.331	2	1	2_0.gif
168.002	1	3	0	3	0.403	3	1	3_0.gif
169.002	1	2	0	2	0.474	2	1	2_0.gif
170.002	1	3	0	3	0.446	3	1	3_0.gif
171.002	1	4	0	4	0.362	4	1	4_0.gif
172.002	1	3	0	3	0.415	3	1	3_0.gif
173.002	1	4	0	6	0	4	n/a	4_0.gif
174.002	1	2	0	2	0.49	2	1	2_0.gif
175.002	1	4	0	4	0.559	4	1	4_0.gif
176.002	1	1	2	6	0	2	n/a	1_2.gif
177.002	1	3	2	6	0	4	n/a	3_2.gif
178.002	1	4	2	1	0.233	1	1	4_2.gif
179.002	1	2	2	3	0.218	3	1	2_2.gif
180.002	1	3	2	4	0.384	4	1	3_2.gif
181.002	1	4	2	2	0.373	2	1	4_2.gif
182.002	1	1	2	3	0.436	3	1	1_2.gif
183.002	1	4	2	4	0.495	4	1	4_2.gif
184.002	1	3	2	1	0.504	1	1	3_2.gif
185.002	1	2	2	1	0.003	4	0	2_2.gif
186.002	1	1	2	3	0.003	3	1	1_2.gif
187.002	1	3	2	6	0	2	n/a	3_2.gif
188.002	1	1	2	6	0	1	n/a	1_2.gif
189.002	1	3	2	1	0.009	3	0	3_2.gif
190.002	1	4	2	3	0.294	1	0	4_2.gif
191.002	1	2	2	1	0.178	3	0	2_2.gif
192.002	1	1	0	3	0.119	1	0	1_0.gif
193.002	1	2	0	1	0.003	2	0	2_0.gif
194.002	1	4	0	2	0.003	4	0	4_0.gif
195.002	1	1	0	1	0.663	1	1	1_0.gif
196.002	1	4	0	6	0	4	n/a	4_0.gif
197.002	1	3	0	3	0.72	3	1	3_0.gif
198.002	1	4	0	3	0.003	4	0	4_0.gif
199.002	1	3	0	3	0.409	3	1	3_0.gif
200.002	1	2	0	2	0.442	2	1	2_0.gif
201.002	1	3	0	3	0.4	3	1	3_0.gif
202.002	1	4	0	4	0.359	4	1	4_0.gif
203.002	1	3	0	3	0.422	3	1	3_0.gif
204.002	1	4	0	6	0	4	n/a	4_0.gif
205.002	1	1	0	1	0.429	1	1	1_0.gif
206.002	1	2	0	2	0.495	2	1	2_0.gif
207.002	1	1	0	1	0.636	1	1	1_0.gif
208.002	1	2	2	6	0	2	n/a	2_2.gif
209.002	1	1	2	6	0	1	n/a	1_2.gif
210.002	1	2	2	2	0.204	2	1	2_2.gif
211.002	1	4	2	1	0.699	1	1	4_2.gif
212.002	1	3	2	1	0.003	2	0	3_2.gif
213.002	1	2	2	2	0.003	4	0	2_2.gif
214.002	1	4	2	3	0.583	3	1	4_2.gif
215.002	1	1	2	3	0.003	2	0	1_2.gif
216.002	1	3	2	4	0.288	4	1	3_2.gif
217.002	1	4	2	1	0.382	1	1	4_2.gif
218.002	1	1	2	6	0	3	n/a	1_2.gif
219.002	1	2	2	6	0	4	n/a	2_2.gif
220.002	1	3	2	1	0.952	1	1	3_2.gif
221.002	1	1	2	1	0.003	2	0	1_2.gif
222.002	1	2	2	2	0.003	3	0	2_2.gif
223.002	1	1	2	1	0.468	1	1	1_2.gif
224.002	1	2	0	2	0.88	2	1	2_0.gif
225.002	1	4	0	2	0.003	4	0	4_0.gif
226.002	1	2	0	2	0.426	2	1	2_0.gif
227.002	1	1	0	1	0.325	1	1	1_0.gif
228.002	1	4	0	4	0.395	4	1	4_0.gif
229.002	1	3	0	3	0.288	3	1	3_0.gif
230.002	1	4	0	4	0.476	4	1	4_0.gif
231.002	1	2	0	2	0.345	2	1	2_0.gif
232.002	1	4	0	6	0	4	n/a	4_0.gif
233.002	1	3	0	3	0.473	3	1	3_0.gif
234.002	1	2	0	2	0.376	2	1	2_0.gif
235.002	1	3	0	3	0.453	3	1	3_0.gif
236.002	1	1	0	1	0.578	1	1	1_0.gif
237.002	1	2	0	2	0.381	2	1	2_0.gif
238.002	1	3	0	3	0.47	3	1	3_0.gif
239.002	1	4	0	6	0	4	n/a	4_0.gif
240.002	1	3	2	6	0	3	n/a	3_2.gif
241.002	1	1	2	6	0	4	n/a	1_2.gif
242.002	1	2	2	3	0.516	3	1	2_2.gif
243.002	1	1	2	3	0.004	1	0	1_2.gif
244.002	1	3	2	2	0.375	2	1	3_2.gif
245.002	1	1	2	1	0.385	1	1	1_2.gif
246.002	1	3	2	3	0.635	3	1	3_2.gif
247.002	1	1	2	1	0.533	1	1	1_2.gif
248.002	1	3	2	3	0.629	3	1	3_2.gif
249.002	1	4	2	3	0.004	1	0	4_2.gif
250.002	1	3	2	1	0.438	3	0	3_2.gif
251.002	1	2	2	6	0	4	n/a	2_2.gif
252.002	1	4	2	6	0	3	n/a	4_2.gif
253.002	1	2	2	2	0.613	2	1	2_2.gif
254.002	1	4	2	4	0.649	4	1	4_2.gif
255.002	1	2	2	2	0.328	2	1	2_2.gif
