onset	duration	nback_display	trial_type	response	response_time	correct_response	correct	stim_file
0	1	2	0	2	0.88	2	1	2_0.gif
1	1	1	0	2	0.002	1	0	1_0.gif
2	1	3	0	3	0.629	3	1	3_0.gif
3	1	1	0	1	0.763	1	1	1_0.gif
4	1	3	0	1	0.003	3	0	3_0.gif
5	1	1	0	1	0.57	1	1	1_0.gif
6	1	3	0	3	0.516	3	1	3_0.gif
7	1	4	0	4	0.517	4	1	4_0.gif
8	1	3	0	3	0.499	3	1	3_0.gif
9	1	4	0	4	0.543	4	1	4_0.gif
10	1	1	0	1	0.391	1	1	1_0.gif
11	1	4	0	4	0.56	4	1	4_0.gif
12	1	1	0	4	0.003	1	0	1_0.gif
13	1	4	0	1	0.003	4	0	4_0.gif
14	1	2	0	4	0.003	2	0	2_0.gif
15	1	1	0	2	0.003	1	0	1_0.gif
16	1	2	2	1	0.003	2	0	2_2.gif
17	1	3	2	6	0	1	n/a	3_2.gif
18	1	1	2	6	0	2	n/a	1_2.gif
19	1	3	2	2	0.752	3	0	3_2.gif
20	1	4	2	2	0.003	1	0	4_2.gif
21	1	3	2	3	0.003	3	1	3_2.gif
22	1	4	2	1	0.236	4	0	4_2.gif
23	1	1	2	3	0.577	3	1	1_2.gif
24	1	3	2	3	0.003	4	0	3_2.gif
25	1	1	2	4	0.025	1	0	1_2.gif
26	1	4	2	1	0.343	3	0	4_2.gif
27	1	3	2	3	0.479	1	0	3_2.gif
28	1	4	2	3	0.004	4	0	4_2.gif
29	1	1	2	1	0.003	3	0	1_2.gif
30	1	3	2	4	0.003	4	1	3_2.gif
31	1	4	2	3	0.003	1	0	4_2.gif
32.001	1	3	0	4	0.003	3	0	3_0.gif
33.001	1	2	0	1	0.003	2	0	2_0.gif
34.001	1	1	0	6	0	1	n/a	1_0.gif
35.001	1	3	0	6	0	3	n/a	3_0.gif
36.001	1	1	0	6	0	1	n/a	1_0.gif
37.001	1	4	0	6	0	4	n/a	4_0.gif
38.001	1	1	0	6	0	1	n/a	1_0.gif
39.001	1	2	0	4	0.192	2	0	2_0.gif
40.001	1	3	0	1	0.295	3	0	3_0.gif
41.001	1	2	0	2	0.756	2	1	2_0.gif
42.001	1	4	0	2	0.003	4	0	4_0.gif
43.001	1	1	0	3	0.003	1	0	1_0.gif
44.001	1	4	0	2	0.003	4	0	4_0.gif
45.001	1	3	0	4	0.003	3	0	3_0.gif
46.001	1	2	0	1	0.101	2	0	2_0.gif
47.001	1	3	0	6	0	3	n/a	3_0.gif
48.001	1	2	2	6	0	2	n/a	2_2.gif
49.001	1	1	2	6	0	3	n/a	1_2.gif
50.001	1	4	2	6	0	2	n/a	4_2.gif
51.001	1	1	2	2	0.619	1	0	1_2.gif
52.001	1	2	2	2	0.003	4	0	2_2.gif
53.001	1	1	2	4	0.176	1	0	1_2.gif
54.001	1	4	2	1	0.511	2	0	4_2.gif
55.001	1	3	2	2	0.246	1	0	3_2.gif
56.001	1	4	2	6	0	4	n/a	4_2.gif
57.001	1	3	2	6	0	3	n/a	3_2.gif
58.001	1	2	2	4	0.233	4	1	2_2.gif
59.001	1	1	2	3	0.316	3	1	1_2.gif
60.001	1	4	2	2	0.369	2	1	4_2.gif
61.001	1	1	2	1	0.337	1	1	1_2.gif
62.001	1	2	2	4	0.245	4	1	2_2.gif
63.001	1	3	2	1	0.363	1	1	3_2.gif
64.003	1	2	0	2	0.368	2	1	2_0.gif
65.003	1	4	0	3	0.331	4	0	4_0.gif
66.003	1	1	0	1	0.487	1	1	1_0.gif
67.003	1	4	0	4	0.637	4	1	4_0.gif
68.003	1	2	0	4	0.004	2	0	2_0.gif
69.003	1	3	0	3	0.607	3	1	3_0.gif
70.003	1	4	0	3	0.002	4	0	4_0.gif
71.003	1	3	0	4	0.003	3	0	3_0.gif
72.003	1	2	0	2	0.468	2	1	2_0.gif
73.003	1	4	0	4	0.52	4	1	4_0.gif
74.003	1	1	0	1	0.396	1	1	1_0.gif
75.003	1	4	0	4	0.47	4	1	4_0.gif
76.003	1	1	0	1	0.45	1	1	1_0.gif
77.003	1	3	0	3	0.433	3	1	3_0.gif
78.003	1	4	0	4	0.482	4	1	4_0.gif
79.003	1	2	0	2	0.412	2	1	2_0.gif
80.003	1	4	2	6	0	4	n/a	4_2.gif
81.003	1	2	2	6	0	2	n/a	2_2.gif
82.003	1	4	2	6	0	4	n/a	4_2.gif
83.003	1	1	2	4	0.017	2	0	1_2.gif
84.003	1	2	2	3	0.589	4	0	2_2.gif
85.003	1	1	2	3	0.003	1	0	1_2.gif
86.003	1	3	2	2	0.003	2	1	3_2.gif
87.003	1	1	2	1	0.02	1	1	1_2.gif
88.003	1	2	2	3	0.392	3	1	2_2.gif
89.003	1	3	2	1	0.53	1	1	3_2.gif
90.003	1	4	2	1	0.003	2	0	4_2.gif
91.003	1	3	2	2	0.003	3	0	3_2.gif
92.003	1	2	2	4	0.003	4	1	2_2.gif
93.003	1	4	2	3	0.003	3	1	4_2.gif
94.003	1	3	2	2	0.198	2	1	3_2.gif
95.003	1	4	2	4	0.263	4	1	4_2.gif
96.003	1	2	0	3	0.196	2	0	2_0.gif
97.003	1	4	0	6	0	4	n/a	4_0.gif
98.003	1	2	0	2	0.9	2	1	2_0.gif
99.003	1	1	0	2	0.004	1	0	1_0.gif
100.003	1	3	0	3	0.447	3	1	3_0.gif
101.003	1	1	0	1	0.466	1	1	1_0.gif
102.003	1	3	0	3	0.503	3	1	3_0.gif
103.003	1	1	0	3	0.003	1	0	1_0.gif
104.003	1	3	0	3	0.427	3	1	3_0.gif
105.003	1	4	0	4	0.429	4	1	4_0.gif
106.003	1	3	0	3	0.443	3	1	3_0.gif
107.003	1	1	0	1	0.433	1	1	1_0.gif
108.003	1	3	0	3	0.536	3	1	3_0.gif
109.003	1	1	0	3	0.004	1	0	1_0.gif
110.003	1	4	0	4	0.479	4	1	4_0.gif
111.003	1	1	0	1	0.435	1	1	1_0.gif
112.004	1	2	2	2	0.652	4	0	2_2.gif
113.004	1	3	2	2	0.002	1	0	3_2.gif
114.004	1	4	2	3	0.003	2	0	4_2.gif
115.004	1	1	2	4	0.003	3	0	1_2.gif
116.004	1	4	2	1	0.003	4	0	4_2.gif
117.004	1	3	2	4	0.002	1	0	3_2.gif
118.004	1	1	2	3	0.003	4	0	1_2.gif
119.004	1	2	2	1	0.003	3	0	2_2.gif
120.004	1	4	2	2	0.003	1	0	4_2.gif
121.004	1	2	2	4	0.003	2	0	2_2.gif
122.004	1	4	2	6	0	4	n/a	4_2.gif
123.004	1	2	2	6	0	2	n/a	2_2.gif
124.004	1	4	2	4	0.893	4	1	4_2.gif
125.004	1	2	2	4	0.003	2	0	2_2.gif
126.004	1	3	2	2	0.003	4	0	3_2.gif
127.004	1	4	2	6	0	2	n/a	4_2.gif
128.004	1	1	0	3	0.339	1	0	1_0.gif
129.004	1	3	0	1	0.133	3	0	3_0.gif
130.004	1	2	0	3	0.058	2	0	2_0.gif
131.004	1	4	0	2	0.003	4	0	4_0.gif
132.004	1	3	0	4	0.007	3	0	3_0.gif
133.004	1	1	0	3	0.003	1	0	1_0.gif
134.004	1	2	0	1	0.003	2	0	2_0.gif
135.004	1	4	0	2	0.003	4	0	4_0.gif
136.004	1	3	0	3	0.484	3	1	3_0.gif
137.004	1	1	0	1	0.399	1	1	1_0.gif
138.004	1	4	0	2	0.479	4	0	4_0.gif
139.004	1	3	0	2	0.003	3	0	3_0.gif
140.004	1	4	0	3	0.003	4	0	4_0.gif
141.004	1	1	0	4	0.003	1	0	1_0.gif
142.004	1	4	0	1	0.003	4	0	4_0.gif
143.004	1	3	0	4	0.003	3	0	3_0.gif
144.005	1	1	2	6	0	4	n/a	1_2.gif
145.005	1	2	2	6	0	3	n/a	2_2.gif
146.005	1	3	2	1	0.34	1	1	3_2.gif
147.005	1	1	2	2	0.451	2	1	1_2.gif
148.005	1	2	2	3	0.363	3	1	2_2.gif
149.005	1	1	2	1	0.391	1	1	1_2.gif
150.005	1	3	2	2	0.339	2	1	3_2.gif
151.005	1	4	2	1	0.373	1	1	4_2.gif
152.005	1	1	2	3	0.298	3	1	1_2.gif
153.005	1	4	2	4	0.402	4	1	4_2.gif
154.005	1	3	2	4	0.003	1	0	3_2.gif
155.005	1	1	2	4	0.548	4	1	1_2.gif
156.005	1	2	2	4	0.003	3	0	2_2.gif
157.005	1	1	2	3	0.003	1	0	1_2.gif
158.005	1	2	2	1	0.003	2	0	2_2.gif
159.005	1	1	2	2	0.003	1	0	1_2.gif
160.005	1	3	0	1	0.003	3	0	3_0.gif
161.005	1	4	0	3	0.246	4	0	4_0.gif
162.005	1	3	0	4	0.003	3	0	3_0.gif
163.005	1	2	0	3	0.003	2	0	2_0.gif
164.005	1	3	0	2	0.003	3	0	3_0.gif
165.005	1	1	0	3	0.003	1	0	1_0.gif
166.005	1	3	0	1	0.003	3	0	3_0.gif
167.005	1	1	0	3	0.003	1	0	1_0.gif
168.005	1	3	0	1	0.003	3	0	3_0.gif
169.005	1	1	0	3	0.003	1	0	1_0.gif
170.005	1	2	0	1	0.063	2	0	2_0.gif
171.005	1	3	0	2	0.003	3	0	3_0.gif
172.005	1	4	0	3	0.003	4	0	4_0.gif
173.005	1	3	0	3	0.459	3	1	3_0.gif
174.005	1	1	0	1	0.511	1	1	1_0.gif
175.005	1	2	0	2	0.387	2	1	2_0.gif
176.005	1	1	2	6	0	1	n/a	1_2.gif
177.005	1	2	2	6	0	2	n/a	2_2.gif
178.005	1	4	2	1	0.188	1	1	4_2.gif
179.005	1	1	2	1	0.004	2	0	1_2.gif
180.005	1	3	2	4	0.003	4	1	3_2.gif
181.005	1	1	2	3	0.037	1	0	1_2.gif
182.005	1	3	2	6	0	3	n/a	3_2.gif
183.005	1	4	2	3	0.244	1	0	4_2.gif
184.005	1	2	2	1	0.003	3	0	2_2.gif
185.005	1	1	2	3	0.003	4	0	1_2.gif
186.005	1	3	2	1	0.667	2	0	3_2.gif
187.005	1	2	2	1	0.004	1	1	2_2.gif
188.005	1	1	2	6	0	3	n/a	1_2.gif
189.006	1	3	2	6	0	2	n/a	3_2.gif
190.006	1	1	2	6	0	1	n/a	1_2.gif
191.006	1	3	2	6	0	3	n/a	3_2.gif
192.007	1	1	0	1	0.797	1	1	1_0.gif
193.007	1	3	0	1	0.003	3	0	3_0.gif
194.007	1	4	0	3	0.003	4	0	4_0.gif
195.007	1	3	0	4	0.003	3	0	3_0.gif
196.007	1	4	0	3	0.003	4	0	4_0.gif
197.007	1	1	0	4	0.003	1	0	1_0.gif
198.007	1	4	0	4	0.577	4	1	4_0.gif
199.007	1	1	0	4	0.003	1	0	1_0.gif
200.007	1	4	0	1	0.003	4	0	4_0.gif
201.007	1	2	0	4	0.003	2	0	2_0.gif
202.007	1	1	0	2	0.003	1	0	1_0.gif
203.007	1	2	0	2	0.537	2	1	2_0.gif
204.007	1	3	0	2	0.003	3	0	3_0.gif
205.007	1	1	0	1	0.392	1	1	1_0.gif
206.007	1	3	0	3	0.468	3	1	3_0.gif
207.007	1	4	0	4	0.395	4	1	4_0.gif
208.007	1	3	2	6	0	3	n/a	3_2.gif
209.007	1	4	2	6	0	4	n/a	4_2.gif
210.007	1	1	2	3	0.568	3	1	1_2.gif
211.007	1	3	2	4	0.31	4	1	3_2.gif
212.007	1	1	2	1	0.167	1	1	1_2.gif
213.007	1	4	2	3	0.17	3	1	4_2.gif
214.007	1	3	2	1	0.025	1	1	3_2.gif
215.007	1	4	2	4	0.003	4	1	4_2.gif
216.007	1	1	2	3	0.003	3	1	1_2.gif
217.007	1	3	2	4	0.003	4	1	3_2.gif
218.007	1	4	2	1	0.003	1	1	4_2.gif
219.007	1	3	2	6	0	3	n/a	3_2.gif
220.007	1	2	2	4	0.984	4	1	2_2.gif
221.007	1	1	2	4	0.003	3	0	1_2.gif
222.007	1	3	2	3	0.003	2	0	3_2.gif
223.007	1	1	2	1	0.003	1	1	1_2.gif
224.007	1	4	0	3	0.258	4	0	4_0.gif
225.007	1	1	0	4	0.217	1	0	1_0.gif
226.007	1	2	0	1	0.003	2	0	2_0.gif
227.007	1	3	0	2	0.103	3	0	3_0.gif
228.007	1	2	0	3	0.027	2	0	2_0.gif
229.007	1	4	0	2	0.003	4	0	4_0.gif
230.007	1	1	0	4	0.003	1	0	1_0.gif
231.007	1	4	0	1	0.003	4	0	4_0.gif
232.007	1	3	0	4	0.004	3	0	3_0.gif
233.007	1	2	0	3	0.003	2	0	2_0.gif
234.007	1	3	0	2	0.003	3	0	3_0.gif
235.007	1	2	0	3	0.133	2	0	2_0.gif
236.007	1	1	0	2	0.003	1	0	1_0.gif
237.007	1	4	0	1	0.003	4	0	4_0.gif
238.007	1	1	0	4	0.003	1	0	1_0.gif
239.007	1	2	0	1	0.003	2	0	2_0.gif
240.008	1	1	2	2	0.003	1	0	1_2.gif
241.008	1	4	2	6	0	2	n/a	4_2.gif
242.008	1	3	2	1	0.35	1	1	3_2.gif
243.008	1	4	2	4	0.243	4	1	4_2.gif
244.008	1	3	2	3	0.207	3	1	3_2.gif
245.008	1	2	2	4	0.572	4	1	2_2.gif
246.008	1	1	2	3	0.485	3	1	1_2.gif
247.008	1	4	2	2	0.431	2	1	4_2.gif
248.008	1	1	2	1	0.263	1	1	1_2.gif
249.008	1	2	2	4	0.388	4	1	2_2.gif
250.008	1	3	2	1	0.317	1	1	3_2.gif
251.008	1	2	2	2	0.25	2	1	2_2.gif
252.008	1	4	2	3	0.243	3	1	4_2.gif
253.008	1	1	2	3	0.003	2	0	1_2.gif
254.008	1	4	2	2	0.003	4	0	4_2.gif
255.008	1	2	2	4	0.003	1	0	2_2.gif
