onset	duration	nback_display	trial_type	response	response_time	correct_response	correct	stim_file
0	1	2	0	6	0	2	n/a	2_0.gif
1	1	1	0	2	0.122	1	0	1_0.gif
2	1	4	0	6	0	4	n/a	4_0.gif
3	1	2	0	2	0.434	2	1	2_0.gif
4	1	1	0	1	0.401	1	1	1_0.gif
5	1	3	0	3	0.444	3	1	3_0.gif
6	1	2	0	2	0.369	2	1	2_0.gif
7	1	1	0	1	0.36	1	1	1_0.gif
8	1	3	0	1	0.003	3	0	3_0.gif
9	1	1	0	3	0.003	1	0	1_0.gif
10	1	3	0	3	0.4	3	1	3_0.gif
11	1	4	0	4	0.515	4	1	4_0.gif
12	1	1	0	1	0.434	1	1	1_0.gif
13	1	3	0	3	0.504	3	1	3_0.gif
14	1	1	0	1	0.465	1	1	1_0.gif
15	1	4	0	4	0.592	4	1	4_0.gif
16	1	1	2	6	0	1	n/a	1_2.gif
17	1	3	2	6	0	4	n/a	3_2.gif
18	1	4	2	1	0.245	1	1	4_2.gif
19	1	2	2	3	0.128	3	1	2_2.gif
20	1	1	2	4	0.003	4	1	1_2.gif
21	1	3	2	2	0.003	2	1	3_2.gif
22	1	2	2	1	0.003	1	1	2_2.gif
23	1	1	2	3	0.003	3	1	1_2.gif
24	1	3	2	2	0.062	2	1	3_2.gif
25	1	1	2	1	0.003	1	1	1_2.gif
26	1	4	2	3	0.003	3	1	4_2.gif
27	1	2	2	1	0.003	1	1	2_2.gif
28	1	4	2	4	0.062	4	1	4_2.gif
29	1	1	2	4	0.744	2	0	1_2.gif
30	1	3	2	1	0.554	4	0	3_2.gif
31	1	4	2	3	0.584	1	0	4_2.gif
32	1	1	0	4	0.597	1	0	1_0.gif
33	1	2	0	1	0.168	2	0	2_0.gif
34	1	4	0	2	0.003	4	0	4_0.gif
35	1	2	0	2	0.488	2	1	2_0.gif
36	1	1	0	1	0.338	1	1	1_0.gif
37	1	4	0	4	0.662	4	1	4_0.gif
38	1	1	0	1	0.407	1	1	1_0.gif
39	1	4	0	4	0.499	4	1	4_0.gif
40	1	2	0	2	0.373	2	1	2_0.gif
41	1	1	0	1	0.343	1	1	1_0.gif
42	1	2	0	2	0.346	2	1	2_0.gif
43	1	3	0	3	0.534	3	1	3_0.gif
44	1	1	0	1	0.376	1	1	1_0.gif
45	1	4	0	4	0.417	4	1	4_0.gif
46	1	3	0	3	0.534	3	1	3_0.gif
47	1	1	0	1	0.388	1	1	1_0.gif
48	1	2	2	2	0.488	3	0	2_2.gif
49	1	3	2	6	0	1	n/a	3_2.gif
50	1	1	2	2	0.351	2	1	1_2.gif
51	1	2	2	3	0.1	3	1	2_2.gif
52	1	3	2	1	0.024	1	1	3_2.gif
53	1	4	2	2	0.061	2	1	4_2.gif
54	1	1	2	3	0.004	3	1	1_2.gif
55	1	2	2	1	0.933	4	0	2_2.gif
56	1	1	2	1	0.004	1	1	1_2.gif
57	1	4	2	2	0.068	2	1	4_2.gif
58	1	2	2	1	0.004	1	1	2_2.gif
59	1	4	2	2	0.765	4	0	4_2.gif
60	1	2	2	2	0.004	2	1	2_2.gif
61	1	1	2	2	0.742	4	0	1_2.gif
62	1	2	2	6	0	2	n/a	2_2.gif
63	1	1	2	1	0.03	1	1	1_2.gif
64.001	1	2	0	2	0.003	2	1	2_0.gif
65.001	1	1	0	1	0.296	1	1	1_0.gif
66.001	1	2	0	2	0.338	2	1	2_0.gif
67.001	1	4	0	6	0	4	n/a	4_0.gif
68.001	1	3	0	3	0.507	3	1	3_0.gif
69.001	1	1	0	1	0.323	1	1	1_0.gif
70.001	1	2	0	2	0.314	2	1	2_0.gif
71.001	1	4	0	4	0.456	4	1	4_0.gif
72.001	1	2	0	2	0.431	2	1	2_0.gif
73.001	1	4	0	4	0.481	4	1	4_0.gif
74.001	1	2	0	2	0.36	2	1	2_0.gif
75.001	1	3	0	3	0.415	3	1	3_0.gif
76.001	1	4	0	4	0.417	4	1	4_0.gif
77.001	1	3	0	3	0.461	3	1	3_0.gif
78.001	1	4	0	4	0.452	4	1	4_0.gif
79.001	1	2	0	2	0.418	2	1	2_0.gif
80.001	1	1	2	6	0	4	n/a	1_2.gif
81.001	1	4	2	6	0	2	n/a	4_2.gif
82.001	1	3	2	1	0.28	1	1	3_2.gif
83.001	1	4	2	4	0.193	4	1	4_2.gif
84.001	1	1	2	3	0.12	3	1	1_2.gif
85.001	1	4	2	6	0	4	n/a	4_2.gif
86.003	1	3	2	1	0.018	1	1	3_2.gif
87.003	1	1	2	4	0.019	4	1	1_2.gif
88.003	1	3	2	3	0.003	3	1	3_2.gif
89.003	1	4	2	1	0.003	1	1	4_2.gif
90.003	1	1	2	6	0	3	n/a	1_2.gif
91.003	1	2	2	1	0.009	4	0	2_2.gif
92.003	1	3	2	1	0.39	1	1	3_2.gif
93.003	1	2	2	2	0.101	2	1	2_2.gif
94.003	1	4	2	3	0.003	3	1	4_2.gif
95.003	1	3	2	2	0.003	2	1	3_2.gif
96.003	1	2	0	4	0.003	2	0	2_0.gif
97.003	1	1	0	1	0.738	1	1	1_0.gif
98.003	1	2	0	2	0.404	2	1	2_0.gif
99.003	1	1	0	1	0.263	1	1	1_0.gif
100.003	1	4	0	4	0.543	4	1	4_0.gif
101.003	1	3	0	3	0.638	3	1	3_0.gif
102.003	1	1	0	1	0.325	1	1	1_0.gif
103.003	1	3	0	3	0.562	3	1	3_0.gif
104.003	1	4	0	4	0.507	4	1	4_0.gif
105.003	1	3	0	3	0.447	3	1	3_0.gif
106.003	1	4	0	4	0.399	4	1	4_0.gif
107.003	1	2	0	2	0.451	2	1	2_0.gif
108.003	1	4	0	4	0.431	4	1	4_0.gif
109.003	1	1	0	1	0.439	1	1	1_0.gif
110.003	1	3	0	3	0.396	3	1	3_0.gif
111.003	1	1	0	1	0.515	1	1	1_0.gif
112.003	1	3	2	3	0.49	3	1	3_2.gif
113.003	1	1	2	6	0	1	n/a	1_2.gif
114.003	1	3	2	3	0.343	3	1	3_2.gif
115.003	1	1	2	1	0.058	1	1	1_2.gif
116.003	1	3	2	3	0.003	3	1	3_2.gif
117.003	1	1	2	1	0.003	1	1	1_2.gif
118.003	1	3	2	1	0.509	3	0	3_2.gif
119.003	1	1	2	3	0.513	1	0	1_2.gif
120.003	1	4	2	1	0.356	3	0	4_2.gif
121.003	1	1	2	3	0.521	1	0	1_2.gif
122.003	1	2	2	1	0.12	4	0	2_2.gif
123.003	1	3	2	6	0	1	n/a	3_2.gif
124.003	1	4	2	6	0	2	n/a	4_2.gif
125.003	1	3	2	3	0.372	3	1	3_2.gif
126.003	1	1	2	4	0.526	4	1	1_2.gif
127.003	1	3	2	3	0.519	3	1	3_2.gif
128.003	1	4	0	1	0.247	4	0	4_0.gif
129.003	1	2	0	4	0.287	2	0	2_0.gif
130.003	1	4	0	2	0.003	4	0	4_0.gif
131.003	1	3	0	3	0.314	3	1	3_0.gif
132.003	1	4	0	4	0.427	4	1	4_0.gif
133.003	1	3	0	3	0.372	3	1	3_0.gif
134.003	1	2	0	2	0.443	2	1	2_0.gif
135.003	1	1	0	1	0.425	1	1	1_0.gif
136.003	1	3	0	3	0.46	3	1	3_0.gif
137.003	1	4	0	4	0.436	4	1	4_0.gif
138.003	1	3	0	3	0.435	3	1	3_0.gif
139.003	1	4	0	4	0.448	4	1	4_0.gif
140.003	1	3	0	3	0.453	3	1	3_0.gif
141.003	1	1	0	1	0.393	1	1	1_0.gif
142.003	1	3	0	3	0.369	3	1	3_0.gif
143.003	1	2	0	2	0.427	2	1	2_0.gif
144.003	1	1	2	6	0	3	n/a	1_2.gif
145.003	1	4	2	6	0	2	n/a	4_2.gif
146.003	1	3	2	1	0.177	1	1	3_2.gif
147.003	1	1	2	6	0	4	n/a	1_2.gif
148.003	1	4	2	3	0.012	3	1	4_2.gif
149.003	1	3	2	1	0.006	1	1	3_2.gif
150.003	1	4	2	3	0.723	4	0	4_2.gif
151.003	1	1	2	3	0.004	3	1	1_2.gif
152.003	1	4	2	1	0.675	4	0	4_2.gif
153.003	1	1	2	6	0	1	n/a	1_2.gif
154.003	1	2	2	1	0.69	4	0	2_2.gif
155.003	1	3	2	1	0.006	1	1	3_2.gif
156.003	1	1	2	3	0.552	2	0	1_2.gif
157.003	1	2	2	1	0.727	3	0	2_2.gif
158.003	1	1	2	1	0.006	1	1	1_2.gif
159.003	1	2	2	2	0.004	2	1	2_2.gif
160.004	1	4	0	1	0.003	4	0	4_0.gif
161.004	1	1	0	1	0.842	1	1	1_0.gif
162.004	1	4	0	1	0.003	4	0	4_0.gif
163.004	1	2	0	2	0.581	2	1	2_0.gif
164.004	1	1	0	1	0.536	1	1	1_0.gif
165.004	1	4	0	4	0.629	4	1	4_0.gif
166.004	1	2	0	2	0.478	2	1	2_0.gif
167.004	1	1	0	1	0.473	1	1	1_0.gif
168.004	1	2	0	2	0.457	2	1	2_0.gif
169.004	1	3	0	3	0.534	3	1	3_0.gif
170.004	1	4	0	4	0.519	4	1	4_0.gif
171.004	1	3	0	3	0.517	3	1	3_0.gif
172.004	1	4	0	3	0.003	4	0	4_0.gif
173.004	1	3	0	3	0.498	3	1	3_0.gif
174.004	1	1	0	3	0.003	1	0	1_0.gif
175.004	1	2	0	2	0.442	2	1	2_0.gif
176.004	1	1	2	1	0.441	1	1	1_2.gif
177.004	1	4	2	6	0	2	n/a	4_2.gif
178.004	1	2	2	1	0.253	1	1	2_2.gif
179.004	1	1	2	4	0.047	4	1	1_2.gif
180.004	1	4	2	2	0.008	2	1	4_2.gif
181.004	1	1	2	1	0.083	1	1	1_2.gif
182.004	1	4	2	4	0.039	4	1	4_2.gif
183.004	1	3	2	1	0.174	1	1	3_2.gif
184.004	1	4	2	4	0.003	4	1	4_2.gif
185.004	1	2	2	3	0.078	3	1	2_2.gif
186.004	1	4	2	4	0.003	4	1	4_2.gif
187.004	1	3	2	2	0.003	2	1	3_2.gif
188.004	1	4	2	4	0.003	4	1	4_2.gif
189.004	1	1	2	3	0.003	3	1	1_2.gif
190.004	1	2	2	1	0.587	4	0	2_2.gif
191.004	1	4	2	2	0.369	1	0	4_2.gif
192.004	1	1	0	4	0.359	1	0	1_0.gif
193.004	1	4	0	1	0.096	4	0	4_0.gif
194.004	1	2	0	2	0.375	2	1	2_0.gif
195.004	1	1	0	1	0.45	1	1	1_0.gif
196.004	1	3	0	3	0.367	3	1	3_0.gif
197.004	1	2	0	2	0.349	2	1	2_0.gif
198.004	1	1	0	1	0.316	1	1	1_0.gif
199.004	1	3	0	3	0.426	3	1	3_0.gif
200.004	1	1	0	1	0.43	1	1	1_0.gif
201.004	1	3	0	3	0.463	3	1	3_0.gif
202.004	1	4	0	4	0.433	4	1	4_0.gif
203.004	1	1	0	1	0.323	1	1	1_0.gif
204.004	1	3	0	3	0.476	3	1	3_0.gif
205.004	1	1	0	1	0.414	1	1	1_0.gif
206.004	1	4	0	4	0.442	4	1	4_0.gif
207.004	1	1	0	1	0.338	1	1	1_0.gif
208.004	1	3	2	3	0.349	4	0	3_2.gif
209.004	1	4	2	4	0.509	1	0	4_2.gif
210.004	1	2	2	3	0.891	3	1	2_2.gif
211.004	1	1	2	3	0.004	4	0	1_2.gif
212.004	1	3	2	2	0.443	2	1	3_2.gif
213.004	1	2	2	1	0.215	1	1	2_2.gif
214.004	1	1	2	3	0.21	3	1	1_2.gif
215.004	1	3	2	2	0.008	2	1	3_2.gif
216.004	1	1	2	1	0.004	1	1	1_2.gif
217.004	1	4	2	3	0.004	3	1	4_2.gif
218.004	1	2	2	4	0.49	1	0	2_2.gif
219.004	1	4	2	2	0.292	4	0	4_2.gif
220.004	1	1	2	4	0.303	2	0	1_2.gif
221.004	1	3	2	1	0.295	4	0	3_2.gif
222.004	1	4	2	3	0.278	1	0	4_2.gif
223.004	1	1	2	6	0	3	n/a	1_2.gif
224.005	1	2	0	1	0.325	2	0	2_0.gif
225.005	1	4	0	6	0	4	n/a	4_0.gif
226.005	1	2	0	2	0.444	2	1	2_0.gif
227.005	1	1	0	1	0.279	1	1	1_0.gif
228.005	1	4	0	6	0	4	n/a	4_0.gif
229.005	1	1	0	1	0.324	1	1	1_0.gif
230.005	1	4	0	4	0.362	4	1	4_0.gif
231.005	1	2	0	2	0.405	2	1	2_0.gif
232.005	1	1	0	1	0.3	1	1	1_0.gif
233.005	1	2	0	2	0.396	2	1	2_0.gif
234.005	1	3	0	3	0.437	3	1	3_0.gif
235.005	1	1	0	1	0.271	1	1	1_0.gif
236.005	1	4	0	4	0.447	4	1	4_0.gif
237.005	1	3	0	3	0.369	3	1	3_0.gif
238.005	1	1	0	1	0.26	1	1	1_0.gif
239.005	1	2	0	2	0.432	2	1	2_0.gif
240.005	1	3	2	3	0.499	1	0	3_2.gif
241.005	1	1	2	6	0	2	n/a	1_2.gif
242.005	1	2	2	3	0.646	3	1	2_2.gif
243.005	1	3	2	1	0.481	1	1	3_2.gif
244.005	1	4	2	2	0.279	2	1	4_2.gif
245.005	1	1	2	3	0.044	3	1	1_2.gif
246.005	1	2	2	4	0.138	4	1	2_2.gif
247.005	1	1	2	1	0.04	1	1	1_2.gif
248.005	1	4	2	2	0.003	2	1	4_2.gif
249.005	1	2	2	1	0.003	1	1	2_2.gif
250.005	1	4	2	2	0.626	4	0	4_2.gif
251.005	1	2	2	4	0.619	2	0	2_2.gif
252.005	1	1	2	2	0.466	4	0	1_2.gif
253.005	1	2	2	6	0	2	n/a	2_2.gif
254.005	1	1	2	1	0.38	1	1	1_2.gif
255.005	1	2	2	2	0.069	2	1	2_2.gif
