onset	duration	nback_display	trial_type	response	response_time	correct_response	correct	stim_file
0	1	1	0	1	0.526	1	1	1_0.gif
1	1	2	0	2	0.523	2	1	2_0.gif
2	1	1	0	1	0.538	1	1	1_0.gif
3	1	2	0	1	0.014	2	0	2_0.gif
4	1	1	0	1	0.446	1	1	1_0.gif
5	1	2	0	2	0.452	2	1	2_0.gif
6	1	4	0	4	0.523	4	1	4_0.gif
7	1	1	0	1	0.61	1	1	1_0.gif
8	1	2	0	1	0.013	2	0	2_0.gif
9	1	1	0	2	0.013	1	0	1_0.gif
10	1	2	0	2	0.406	2	1	2_0.gif
11	1	3	0	3	0.549	3	1	3_0.gif
12	1	4	0	4	0.437	4	1	4_0.gif
13	1	3	0	3	0.558	3	1	3_0.gif
14	1	4	0	4	0.542	4	1	4_0.gif
15	1	3	0	3	0.458	3	1	3_0.gif
16	1	2	2	6	0	4	n/a	2_2.gif
17	1	1	2	6	0	3	n/a	1_2.gif
18	1	4	2	2	0.362	2	1	4_2.gif
19	1	1	2	1	0.4	1	1	1_2.gif
20	1	3	2	4	0.404	4	1	3_2.gif
21	1	4	2	1	0.446	1	1	4_2.gif
22	1	2	2	3	0.476	3	1	2_2.gif
23.001	1	3	2	4	0.409	4	1	3_2.gif
24.001	1	4	2	2	0.382	2	1	4_2.gif
25.001	1	3	2	2	0.013	3	0	3_2.gif
26.001	1	2	2	3	0.014	4	0	2_2.gif
27.001	1	3	2	4	0.013	3	0	3_2.gif
28.001	1	1	2	3	0.014	2	0	1_2.gif
29.001	1	2	2	2	0.014	3	0	2_2.gif
30.001	1	3	2	3	0.013	1	0	3_2.gif
31.001	1	1	2	6	0	2	n/a	1_2.gif
32.001	1	2	0	6	0	2	n/a	2_0.gif
33.001	1	4	0	2	0.014	4	0	4_0.gif
34.001	1	3	0	4	0.014	3	0	3_0.gif
35.001	1	2	0	3	0.018	2	0	2_0.gif
36.001	1	1	0	2	0.015	1	0	1_0.gif
37.001	1	2	0	1	0.014	2	0	2_0.gif
38.001	1	1	0	2	0.144	1	0	1_0.gif
39.001	1	4	0	1	0.014	4	0	4_0.gif
40.001	1	1	0	4	0.014	1	0	1_0.gif
41.001	1	3	0	1	0.014	3	0	3_0.gif
42.001	1	4	0	4	0.468	4	1	4_0.gif
43.001	1	2	0	2	0.344	2	1	2_0.gif
44.001	1	3	0	3	0.466	3	1	3_0.gif
45.001	1	4	0	4	0.437	4	1	4_0.gif
46.001	1	2	0	4	0.017	2	0	2_0.gif
47.001	1	1	0	1	0.395	1	1	1_0.gif
48.002	1	3	2	6	0	2	n/a	3_2.gif
49.002	1	1	2	6	0	1	n/a	1_2.gif
50.002	1	4	2	3	0.279	3	1	4_2.gif
51.002	1	3	2	1	0.179	1	1	3_2.gif
52.002	1	1	2	4	0.168	4	1	1_2.gif
53.002	1	2	2	3	0.206	3	1	2_2.gif
54.002	1	1	2	1	0.013	1	1	1_2.gif
55.002	1	4	2	2	0.013	2	1	4_2.gif
56.002	1	2	2	1	0.014	1	1	2_2.gif
57.002	1	3	2	2	0.222	4	0	3_2.gif
58.002	1	2	2	6	0	2	n/a	2_2.gif
59.002	1	4	2	3	0.327	3	1	4_2.gif
60.002	1	1	2	2	0.352	2	1	1_2.gif
61.002	1	4	2	4	0.013	4	1	4_2.gif
62.002	1	1	2	1	0.31	1	1	1_2.gif
63.002	1	3	2	1	0.014	4	0	3_2.gif
64.003	1	1	0	1	0.619	1	1	1_0.gif
65.003	1	2	0	2	0.366	2	1	2_0.gif
66.003	1	1	0	1	0.469	1	1	1_0.gif
67.003	1	3	0	3	0.441	3	1	3_0.gif
68.003	1	2	0	2	0.454	2	1	2_0.gif
69.003	1	4	0	4	0.393	4	1	4_0.gif
70.003	1	2	0	2	0.428	2	1	2_0.gif
71.003	1	4	0	4	0.515	4	1	4_0.gif
72.003	1	3	0	3	0.492	3	1	3_0.gif
73.003	1	2	0	2	0.486	2	1	2_0.gif
74.003	1	1	0	1	0.433	1	1	1_0.gif
75.003	1	2	0	2	0.489	2	1	2_0.gif
76.003	1	4	0	4	0.42	4	1	4_0.gif
77.003	1	3	0	3	0.467	3	1	3_0.gif
78.003	1	1	0	1	0.451	1	1	1_0.gif
79.003	1	3	0	3	0.501	3	1	3_0.gif
80.003	1	1	2	6	0	1	n/a	1_2.gif
81.003	1	4	2	6	0	3	n/a	4_2.gif
82.004	1	2	2	1	0.316	1	1	2_2.gif
83.004	1	3	2	4	0.297	4	1	3_2.gif
84.004	1	1	2	2	0.182	2	1	1_2.gif
85.004	1	3	2	3	0.107	3	1	3_2.gif
86.004	1	1	2	1	0.013	1	1	1_2.gif
87.004	1	2	2	3	0.029	3	1	2_2.gif
88.004	1	4	2	1	0.666	1	1	4_2.gif
89.004	1	1	2	2	0.158	2	1	1_2.gif
90.004	1	4	2	4	0.015	4	1	4_2.gif
91.004	1	3	2	1	0.013	1	1	3_2.gif
92.004	1	2	2	4	0.162	4	1	2_2.gif
93.004	1	1	2	3	0.013	3	1	1_2.gif
94.004	1	4	2	2	0.013	2	1	4_2.gif
95.004	1	2	2	1	0.014	1	1	2_2.gif
96.004	1	4	0	4	0.013	4	1	4_0.gif
97.004	1	2	0	4	0.018	2	0	2_0.gif
98.004	1	4	0	4	0.753	4	1	4_0.gif
99.004	1	3	0	4	0.014	3	0	3_0.gif
100.004	1	2	0	2	0.602	2	1	2_0.gif
101.004	1	3	0	3	0.501	3	1	3_0.gif
102.004	1	1	0	1	0.493	1	1	1_0.gif
103.004	1	3	0	3	0.49	3	1	3_0.gif
104.004	1	4	0	4	0.38	4	1	4_0.gif
105.004	1	1	0	1	0.448	1	1	1_0.gif
106.004	1	3	0	1	0.267	3	0	3_0.gif
107.004	1	4	0	4	0.492	4	1	4_0.gif
108.004	1	3	0	3	0.5	3	1	3_0.gif
109.004	1	1	0	1	0.524	1	1	1_0.gif
110.004	1	2	0	2	0.449	2	1	2_0.gif
111.004	1	4	0	4	0.448	4	1	4_0.gif
112.005	1	2	2	6	0	2	n/a	2_2.gif
113.005	1	3	2	6	0	4	n/a	3_2.gif
114.005	1	2	2	2	0.402	2	1	2_2.gif
115.005	1	4	2	3	0.342	3	1	4_2.gif
116.005	1	2	2	2	0.338	2	1	2_2.gif
117.005	1	4	2	4	0.197	4	1	4_2.gif
118.005	1	3	2	2	0.189	2	1	3_2.gif
119.005	1	4	2	4	0.013	4	1	4_2.gif
120.005	1	3	2	3	0.013	3	1	3_2.gif
121.005	1	1	2	4	0.013	4	1	1_2.gif
122.005	1	2	2	3	0.014	3	1	2_2.gif
123.005	1	3	2	1	0.207	1	1	3_2.gif
124.005	1	4	2	2	0.155	2	1	4_2.gif
125.005	1	2	2	3	0.16	3	1	2_2.gif
126.005	1	3	2	4	0.022	4	1	3_2.gif
127.005	1	2	2	2	0.013	2	1	2_2.gif
128.005	1	4	0	3	0.014	4	0	4_0.gif
129.005	1	1	0	4	0.014	1	0	1_0.gif
130.005	1	3	0	1	0.014	3	0	3_0.gif
131.005	1	4	0	4	0.49	4	1	4_0.gif
132.005	1	1	0	1	0.462	1	1	1_0.gif
133.005	1	2	0	2	0.365	2	1	2_0.gif
134.005	1	1	0	1	0.523	1	1	1_0.gif
135.005	1	3	0	3	0.529	3	1	3_0.gif
136.005	1	4	0	4	0.469	4	1	4_0.gif
137.005	1	3	0	3	0.476	3	1	3_0.gif
138.005	1	4	0	4	0.481	4	1	4_0.gif
139.005	1	3	0	3	0.428	3	1	3_0.gif
140.005	1	4	0	4	0.518	4	1	4_0.gif
141.005	1	2	0	2	0.534	2	1	2_0.gif
142.005	1	1	0	1	0.637	1	1	1_0.gif
143.005	1	3	0	3	0.608	3	1	3_0.gif
144.006	1	2	2	6	0	1	n/a	2_2.gif
145.006	1	4	2	6	0	3	n/a	4_2.gif
146.006	1	3	2	2	0.26	2	1	3_2.gif
147.006	1	1	2	4	0.217	4	1	1_2.gif
148.006	1	4	2	3	0.095	3	1	4_2.gif
149.006	1	3	2	1	0.167	1	1	3_2.gif
150.006	1	4	2	4	0.146	4	1	4_2.gif
151.006	1	3	2	3	0.071	3	1	3_2.gif
152.006	1	1	2	4	0.065	4	1	1_2.gif
153.006	1	3	2	3	0.04	3	1	3_2.gif
154.006	1	1	2	1	0.016	1	1	1_2.gif
155.006	1	2	2	3	0.074	3	1	2_2.gif
156.006	1	4	2	1	0.015	1	1	4_2.gif
157.006	1	1	2	2	0.016	2	1	1_2.gif
158.006	1	2	2	4	0.013	4	1	2_2.gif
159.006	1	4	2	1	0.016	1	1	4_2.gif
160.006	1	2	0	2	0.013	2	1	2_0.gif
161.006	1	4	0	2	0.013	4	0	4_0.gif
162.006	1	2	0	2	0.532	2	1	2_0.gif
163.006	1	3	0	3	0.49	3	1	3_0.gif
164.006	1	4	0	4	0.431	4	1	4_0.gif
165.006	1	3	0	3	0.455	3	1	3_0.gif
166.006	1	2	0	2	0.504	2	1	2_0.gif
167.006	1	4	0	4	0.473	4	1	4_0.gif
168.006	1	1	0	1	0.4	1	1	1_0.gif
169.006	1	4	0	4	0.452	4	1	4_0.gif
170.006	1	1	0	1	0.547	1	1	1_0.gif
171.006	1	2	0	2	0.406	2	1	2_0.gif
172.006	1	1	0	1	0.51	1	1	1_0.gif
173.006	1	2	0	2	0.544	2	1	2_0.gif
174.006	1	3	0	3	0.441	3	1	3_0.gif
175.006	1	4	0	4	0.458	4	1	4_0.gif
176.007	1	1	2	1	0.771	3	0	1_2.gif
177.007	1	3	2	6	0	4	n/a	3_2.gif
178.007	1	4	2	1	0.336	1	1	4_2.gif
179.007	1	2	2	3	0.182	3	1	2_2.gif
180.007	1	1	2	4	0.07	4	1	1_2.gif
181.017	1	2	2	2	0.064	2	1	2_2.gif
182.017	1	4	2	1	0.013	1	1	4_2.gif
183.017	1	1	2	2	0.013	2	1	1_2.gif
184.017	1	2	2	4	0.014	4	1	2_2.gif
185.017	1	3	2	1	0.203	1	1	3_2.gif
186.017	1	2	2	2	0.206	2	1	2_2.gif
187.017	1	1	2	3	0.063	3	1	1_2.gif
188.017	1	4	2	2	0.014	2	1	4_2.gif
189.017	1	3	2	1	0.014	1	1	3_2.gif
190.017	1	2	2	4	0.016	4	1	2_2.gif
191.017	1	3	2	3	0.014	3	1	3_2.gif
192.017	1	2	0	2	0.772	2	1	2_0.gif
193.017	1	4	0	2	0.014	4	0	4_0.gif
194.017	1	3	0	3	0.469	3	1	3_0.gif
195.017	1	4	0	4	0.542	4	1	4_0.gif
196.017	1	1	0	1	0.501	1	1	1_0.gif
197.017	1	4	0	4	0.459	4	1	4_0.gif
198.017	1	2	0	2	0.439	2	1	2_0.gif
199.017	1	4	0	4	0.475	4	1	4_0.gif
200.017	1	2	0	2	0.465	2	1	2_0.gif
201.017	1	1	0	1	0.426	1	1	1_0.gif
202.017	1	2	0	2	0.526	2	1	2_0.gif
203.017	1	1	0	1	0.502	1	1	1_0.gif
204.017	1	2	0	2	0.401	2	1	2_0.gif
205.017	1	1	0	1	0.556	1	1	1_0.gif
206.017	1	2	0	2	0.48	2	1	2_0.gif
207.017	1	4	0	4	0.576	4	1	4_0.gif
208.018	1	1	2	6	0	2	n/a	1_2.gif
209.018	1	2	2	6	0	4	n/a	2_2.gif
210.018	1	1	2	1	0.361	1	1	1_2.gif
211.018	1	2	2	2	0.193	2	1	2_2.gif
212.018	1	3	2	1	0.133	1	1	3_2.gif
213.018	1	4	2	2	0.067	2	1	4_2.gif
214.018	1	3	2	3	0.114	3	1	3_2.gif
215.018	1	4	2	4	0.013	4	1	4_2.gif
216.018	1	3	2	3	0.019	3	1	3_2.gif
217.018	1	2	2	4	0.148	4	1	2_2.gif
218.018	1	1	2	3	0.014	3	1	1_2.gif
219.018	1	4	2	2	0.014	2	1	4_2.gif
220.018	1	1	2	1	0.013	1	1	1_2.gif
221.018	1	3	2	4	0.013	4	1	3_2.gif
222.018	1	4	2	1	0.013	1	1	4_2.gif
223.018	1	2	2	4	0.648	3	0	2_2.gif
224.019	1	3	0	3	0.693	3	1	3_0.gif
225.019	1	4	0	4	0.595	4	1	4_0.gif
226.019	1	3	0	3	0.506	3	1	3_0.gif
227.019	1	2	0	2	0.42	2	1	2_0.gif
228.019	1	3	0	3	0.482	3	1	3_0.gif
229.019	1	1	0	1	0.385	1	1	1_0.gif
230.019	1	2	0	2	0.513	2	1	2_0.gif
231.019	1	3	0	3	0.477	3	1	3_0.gif
232.019	1	1	0	1	0.569	1	1	1_0.gif
233.019	1	2	0	2	0.466	2	1	2_0.gif
234.019	1	4	0	4	0.373	4	1	4_0.gif
235.019	1	3	0	3	0.386	3	1	3_0.gif
236.019	1	2	0	2	0.763	2	1	2_0.gif
237.019	1	1	0	2	0.016	1	0	1_0.gif
238.019	1	2	0	2	0.479	2	1	2_0.gif
239.019	1	1	0	1	0.451	1	1	1_0.gif
240.02	1	4	2	6	0	2	n/a	4_2.gif
241.02	1	1	2	6	0	1	n/a	1_2.gif
242.02	1	3	2	4	0.336	4	1	3_2.gif
243.02	1	4	2	1	0.087	1	1	4_2.gif
244.021	1	2	2	3	0.014	3	1	2_2.gif
245.021	1	3	2	4	0.013	4	1	3_2.gif
246.021	1	4	2	2	0.014	2	1	4_2.gif
247.021	1	2	2	3	0.014	3	1	2_2.gif
248.021	1	1	2	4	0.013	4	1	1_2.gif
249.021	1	3	2	1	0.57	2	0	3_2.gif
250.021	1	1	2	1	0.573	1	1	1_2.gif
251.021	1	4	2	3	0.014	3	1	4_2.gif
252.021	1	3	2	4	0.565	1	0	3_2.gif
253.021	1	1	2	3	0.62	4	0	1_2.gif
254.021	1	2	2	1	0.471	3	0	2_2.gif
255.021	1	1	2	2	0.327	1	0	1_2.gif
