onset	duration	nback_display	trial_type	response	response_time	correct_response	correct	stim_file
0	1	4	0	4	0.58	4	1	4_0.gif
1	1	3	0	3	0.367	3	1	3_0.gif
2	1	2	0	2	0.302	2	1	2_0.gif
3	1	3	0	3	0.424	3	1	3_0.gif
4	1	1	0	1	0.33	1	1	1_0.gif
5	1	2	0	2	0.247	2	1	2_0.gif
6	1	3	0	3	0.319	3	1	3_0.gif
7	1	2	0	2	0.345	2	1	2_0.gif
8	1	1	0	1	0.358	1	1	1_0.gif
9	1	3	0	3	0.281	3	1	3_0.gif
10	1	1	0	1	0.298	1	1	1_0.gif
11	1	2	0	2	0.275	2	1	2_0.gif
12	1	3	0	3	0.308	3	1	3_0.gif
13	1	2	0	2	0.337	2	1	2_0.gif
14	1	3	0	3	0.367	3	1	3_0.gif
15	1	2	0	2	0.402	2	1	2_0.gif
16	1	3	2	6	0	3	n/a	3_2.gif
17	1	1	2	6	0	2	n/a	1_2.gif
18	1	3	2	3	0.112	3	1	3_2.gif
19	1	4	2	1	0.007	1	1	4_2.gif
20	1	3	2	3	0.006	3	1	3_2.gif
21	1	2	2	4	0.006	4	1	2_2.gif
22	1	1	2	2	0.756	3	0	1_2.gif
23	1	2	2	1	0.738	2	0	2_2.gif
24	1	1	2	2	0.68	1	0	1_2.gif
25	1	3	2	1	0.528	2	0	3_2.gif
26	1	2	2	3	0.359	1	0	2_2.gif
27	1	3	2	2	0.695	3	0	3_2.gif
28	1	2	2	3	0.217	2	0	2_2.gif
29	1	1	2	2	0.153	3	0	1_2.gif
30	1	2	2	2	0.721	2	1	2_2.gif
31	1	3	2	3	0.387	1	0	3_2.gif
32	1	1	0	1	0.533	1	1	1_0.gif
33	1	2	0	2	0.296	2	1	2_0.gif
34	1	3	0	3	0.277	3	1	3_0.gif
35	1	4	0	4	0.312	4	1	4_0.gif
36	1	2	0	2	0.431	2	1	2_0.gif
37	1	4	0	4	0.432	4	1	4_0.gif
38	1	1	0	1	0.411	1	1	1_0.gif
39	1	3	0	3	0.416	3	1	3_0.gif
40	1	4	0	4	0.409	4	1	4_0.gif
41	1	3	0	3	0.423	3	1	3_0.gif
42	1	1	0	1	0.392	1	1	1_0.gif
43	1	4	0	4	0.47	4	1	4_0.gif
44	1	2	0	2	0.325	2	1	2_0.gif
45	1	3	0	3	0.379	3	1	3_0.gif
46	1	2	0	2	0.445	2	1	2_0.gif
47	1	1	0	1	0.301	1	1	1_0.gif
48	1	4	2	6	0	2	n/a	4_2.gif
49	1	3	2	6	0	1	n/a	3_2.gif
50	1	4	2	4	0.169	4	1	4_2.gif
51	1	1	2	3	0.007	3	1	1_2.gif
52	1	2	2	4	0.006	4	1	2_2.gif
53	1	3	2	1	0.006	1	1	3_2.gif
54	1	1	2	2	0.007	2	1	1_2.gif
55	1	4	2	3	0.319	3	1	4_2.gif
56	1	2	2	1	0.006	1	1	2_2.gif
57	1	1	2	6	0	4	n/a	1_2.gif
58	1	2	2	2	0.354	2	1	2_2.gif
59	1	4	2	1	0.202	1	1	4_2.gif
60	1	3	2	4	0.194	2	0	3_2.gif
61	1	4	2	3	0.184	4	0	4_2.gif
62	1	3	2	4	0.383	3	0	3_2.gif
63	1	4	2	3	0.224	4	0	4_2.gif
64	1	1	0	1	0.503	1	1	1_0.gif
65	1	4	0	4	0.45	4	1	4_0.gif
66	1	1	0	1	0.409	1	1	1_0.gif
67	1	2	0	2	0.32	2	1	2_0.gif
68	1	3	0	3	0.255	3	1	3_0.gif
69	1	1	0	1	0.243	1	1	1_0.gif
70	1	2	0	2	0.211	2	1	2_0.gif
71	1	4	0	4	0.438	4	1	4_0.gif
72	1	2	0	2	0.421	2	1	2_0.gif
73	1	4	0	4	0.419	4	1	4_0.gif
74	1	1	0	1	0.386	1	1	1_0.gif
75	1	3	0	3	0.466	3	1	3_0.gif
76	1	2	0	2	0.304	2	1	2_0.gif
77	1	3	0	3	0.465	3	1	3_0.gif
78	1	4	0	4	0.409	4	1	4_0.gif
79	1	2	0	2	0.304	2	1	2_0.gif
80.001	1	1	2	1	0.307	4	0	1_2.gif
81.001	1	2	2	6	0	2	n/a	2_2.gif
82.001	1	3	2	1	0.242	1	1	3_2.gif
83.001	1	1	2	2	0.163	2	1	1_2.gif
84.001	1	2	2	1	0.103	3	0	2_2.gif
85.001	1	1	2	3	0.006	1	0	1_2.gif
86.001	1	2	2	1	0.363	2	0	2_2.gif
87.001	1	4	2	2	0.199	1	0	4_2.gif
88.001	1	2	2	6	0	2	n/a	2_2.gif
89.001	1	4	2	6	0	4	n/a	4_2.gif
90.001	1	2	2	6	0	2	n/a	2_2.gif
91.001	1	1	2	4	0.194	4	1	1_2.gif
92.001	1	2	2	2	0.041	2	1	2_2.gif
93.001	1	1	2	1	0.006	1	1	1_2.gif
94.001	1	3	2	3	0.222	2	0	3_2.gif
95.001	1	4	2	6	0	1	n/a	4_2.gif
96.001	1	2	0	2	0.489	2	1	2_0.gif
97.001	1	1	0	1	0.286	1	1	1_0.gif
98.001	1	3	0	3	0.209	3	1	3_0.gif
99.001	1	1	0	1	0.409	1	1	1_0.gif
100.001	1	2	0	2	0.284	2	1	2_0.gif
101.001	1	1	0	1	0.353	1	1	1_0.gif
102.001	1	2	0	2	0.391	2	1	2_0.gif
103.001	1	4	0	4	0.453	4	1	4_0.gif
104.001	1	3	0	3	0.253	3	1	3_0.gif
105.001	1	4	0	4	0.437	4	1	4_0.gif
106.001	1	3	0	3	0.418	3	1	3_0.gif
107.001	1	2	0	2	0.355	2	1	2_0.gif
108.001	1	3	0	3	0.386	3	1	3_0.gif
109.001	1	1	0	1	0.347	1	1	1_0.gif
110.001	1	3	0	3	0.492	3	1	3_0.gif
111.001	1	1	0	1	0.368	1	1	1_0.gif
112.001	1	2	2	6	0	3	n/a	2_2.gif
113.001	1	1	2	6	0	1	n/a	1_2.gif
114.001	1	3	2	2	0.139	2	1	3_2.gif
115.001	1	1	2	1	0.159	1	1	1_2.gif
116.001	1	3	2	3	0.166	3	1	3_2.gif
117.001	1	2	2	1	0.187	1	1	2_2.gif
118.001	1	3	2	3	0.442	3	1	3_2.gif
119.001	1	1	2	2	0.264	2	1	1_2.gif
120.001	1	4	2	1	0.149	3	0	4_2.gif
121.001	1	1	2	4	0.029	1	0	1_2.gif
122.001	1	2	2	1	0.007	4	0	2_2.gif
123.001	1	3	2	2	0.006	1	0	3_2.gif
124.001	1	4	2	6	0	2	n/a	4_2.gif
125.001	1	1	2	1	0.276	3	0	1_2.gif
126.001	1	2	2	6	0	4	n/a	2_2.gif
127.001	1	3	2	6	0	1	n/a	3_2.gif
128.001	1	4	0	2	0.136	4	0	4_0.gif
129.001	1	1	0	4	0.074	1	0	1_0.gif
130.001	1	2	0	2	0.217	2	1	2_0.gif
131.001	1	1	0	1	0.384	1	1	1_0.gif
132.001	1	2	0	2	0.335	2	1	2_0.gif
133.001	1	1	0	1	0.416	1	1	1_0.gif
134.001	1	4	0	4	0.424	4	1	4_0.gif
135.001	1	3	0	3	0.383	3	1	3_0.gif
136.001	1	1	0	1	0.295	1	1	1_0.gif
137.001	1	2	0	2	0.304	2	1	2_0.gif
138.001	1	4	0	4	0.41	4	1	4_0.gif
139.001	1	3	0	3	0.283	3	1	3_0.gif
140.001	1	1	0	1	0.435	1	1	1_0.gif
141.001	1	4	0	4	0.435	4	1	4_0.gif
142.001	1	2	0	2	0.354	2	1	2_0.gif
143.001	1	1	0	1	0.336	1	1	1_0.gif
144.002	1	3	2	3	0.29	2	0	3_2.gif
145.002	1	2	2	6	0	1	n/a	2_2.gif
146.002	1	1	2	3	0.187	3	1	1_2.gif
147.002	1	3	2	2	0.069	2	1	3_2.gif
148.002	1	2	2	1	0.079	1	1	2_2.gif
149.002	1	4	2	3	0.196	3	1	4_2.gif
150.002	1	3	2	2	0.171	2	1	3_2.gif
151.002	1	4	2	4	0.129	4	1	4_2.gif
152.002	1	1	2	3	0.006	3	1	1_2.gif
153.002	1	3	2	4	0.005	4	1	3_2.gif
154.002	1	4	2	3	0.015	1	0	4_2.gif
155.002	1	3	2	6	0	3	n/a	3_2.gif
156.002	1	1	2	4	0.109	4	1	1_2.gif
157.002	1	2	2	3	0.08	3	1	2_2.gif
158.002	1	3	2	1	0.006	1	1	3_2.gif
159.002	1	2	2	2	0.005	2	1	2_2.gif
160.002	1	4	0	4	0.699	4	1	4_0.gif
161.002	1	3	0	3	0.429	3	1	3_0.gif
162.002	1	4	0	4	0.459	4	1	4_0.gif
163.002	1	3	0	3	0.546	3	1	3_0.gif
164.002	1	4	0	4	0.393	4	1	4_0.gif
165.002	1	1	0	1	0.374	1	1	1_0.gif
166.002	1	2	0	2	0.254	2	1	2_0.gif
167.002	1	4	0	4	0.398	4	1	4_0.gif
168.002	1	1	0	1	0.367	1	1	1_0.gif
169.002	1	3	0	3	0.475	3	1	3_0.gif
170.002	1	1	0	1	0.334	1	1	1_0.gif
171.002	1	3	0	3	0.408	3	1	3_0.gif
172.002	1	1	0	1	0.309	1	1	1_0.gif
173.002	1	3	0	3	0.394	3	1	3_0.gif
174.002	1	4	0	4	0.498	4	1	4_0.gif
175.002	1	1	0	1	0.423	1	1	1_0.gif
176.002	1	2	2	2	0.222	4	0	2_2.gif
177.002	1	1	2	6	0	1	n/a	1_2.gif
178.002	1	3	2	2	0.419	2	1	3_2.gif
179.002	1	2	2	1	0.238	1	1	2_2.gif
180.002	1	3	2	3	0.097	3	1	3_2.gif
181.002	1	2	2	2	0.076	2	1	2_2.gif
182.002	1	3	2	6	0	3	n/a	3_2.gif
183.002	1	4	2	2	0.056	2	1	4_2.gif
184.002	1	3	2	3	0.007	3	1	3_2.gif
185.002	1	1	2	4	0.006	4	1	1_2.gif
186.002	1	3	2	1	0.772	3	0	3_2.gif
187.002	1	2	2	3	0.705	1	0	2_2.gif
188.002	1	3	2	2	0.739	3	0	3_2.gif
189.002	1	4	2	3	0.738	2	0	4_2.gif
190.002	1	3	2	6	0	3	n/a	3_2.gif
191.002	1	1	2	3	0.009	4	0	1_2.gif
192.002	1	4	0	4	0.55	4	1	4_0.gif
193.002	1	3	0	3	0.38	3	1	3_0.gif
194.002	1	2	0	2	0.917	2	1	2_0.gif
195.002	1	3	0	2	0.007	3	0	3_0.gif
196.002	1	1	0	1	0.462	1	1	1_0.gif
197.002	1	2	0	2	0.314	2	1	2_0.gif
198.002	1	3	0	3	0.211	3	1	3_0.gif
199.002	1	2	0	2	0.368	2	1	2_0.gif
200.002	1	1	0	1	0.307	1	1	1_0.gif
201.002	1	3	0	3	0.354	3	1	3_0.gif
202.002	1	1	0	1	0.307	1	1	1_0.gif
203.002	1	2	0	2	0.302	2	1	2_0.gif
204.002	1	3	0	3	0.446	3	1	3_0.gif
205.002	1	2	0	1	0.719	2	0	2_0.gif
206.002	1	3	0	3	0.608	3	1	3_0.gif
207.002	1	2	0	2	0.38	2	1	2_0.gif
208.002	1	3	2	6	0	3	n/a	3_2.gif
209.002	1	1	2	3	0.551	2	0	1_2.gif
210.002	1	3	2	1	0.372	3	0	3_2.gif
211.002	1	4	2	6	0	1	n/a	4_2.gif
212.002	1	3	2	6	0	3	n/a	3_2.gif
213.002	1	2	2	4	0.135	4	1	2_2.gif
214.002	1	1	2	3	0.152	3	1	1_2.gif
215.002	1	2	2	2	0.19	2	1	2_2.gif
216.002	1	1	2	1	0.224	1	1	1_2.gif
217.002	1	3	2	2	0.289	2	1	3_2.gif
218.002	1	2	2	1	0.462	1	1	2_2.gif
219.002	1	3	2	3	0.227	3	1	3_2.gif
220.002	1	2	2	2	0.365	2	1	2_2.gif
221.002	1	1	2	3	0.31	3	1	1_2.gif
222.002	1	2	2	1	0.573	2	0	2_2.gif
223.002	1	3	2	2	0.5	1	0	3_2.gif
224.003	1	1	0	1	0.521	1	1	1_0.gif
225.003	1	2	0	2	0.28	2	1	2_0.gif
226.003	1	3	0	3	0.288	3	1	3_0.gif
227.003	1	4	0	4	0.211	4	1	4_0.gif
228.003	1	2	0	2	0.393	2	1	2_0.gif
229.003	1	4	0	4	0.353	4	1	4_0.gif
230.003	1	1	0	1	0.418	1	1	1_0.gif
231.003	1	3	0	3	0.395	3	1	3_0.gif
232.003	1	4	0	4	0.436	4	1	4_0.gif
233.003	1	3	0	3	0.361	3	1	3_0.gif
234.003	1	1	0	1	0.409	1	1	1_0.gif
235.003	1	4	0	4	0.457	4	1	4_0.gif
236.003	1	2	0	2	0.529	2	1	2_0.gif
237.003	1	3	0	3	0.39	3	1	3_0.gif
238.003	1	2	0	2	0.39	2	1	2_0.gif
239.003	1	1	0	1	0.223	1	1	1_0.gif
240.003	1	4	2	6	0	2	n/a	4_2.gif
241.003	1	3	2	6	0	1	n/a	3_2.gif
242.003	1	4	2	4	0.237	4	1	4_2.gif
243.003	1	1	2	3	0.09	3	1	1_2.gif
244.003	1	2	2	4	0.05	4	1	2_2.gif
245.003	1	3	2	1	0.007	1	1	3_2.gif
246.003	1	1	2	2	0.006	2	1	1_2.gif
247.003	1	4	2	1	0.695	3	0	4_2.gif
248.003	1	2	2	4	0.525	1	0	2_2.gif
249.003	1	1	2	2	0.472	4	0	1_2.gif
250.003	1	2	2	1	0.297	2	0	2_2.gif
251.003	1	4	2	2	0.161	1	0	4_2.gif
252.003	1	3	2	4	0.515	2	0	3_2.gif
253.003	1	4	2	3	0.802	4	0	4_2.gif
254.003	1	3	2	4	0.629	3	0	3_2.gif
255.003	1	4	2	6	0	4	n/a	4_2.gif
