onset	duration	nback_display	trial_type	response	response_time	correct_response	correct	stim_file
0	1	3	0	3	0.721	3	1	3_0.gif
1	1	2	0	2	0.456	2	1	2_0.gif
2	1	1	0	1	0.358	1	1	1_0.gif
3	1	3	0	3	0.284	3	1	3_0.gif
4	1	2	0	3	0.003	2	0	2_0.gif
5	1	3	0	3	0.373	3	1	3_0.gif
6	1	2	0	2	0.294	2	1	2_0.gif
7	1	4	0	4	0.636	4	1	4_0.gif
8	1	2	0	2	0.595	2	1	2_0.gif
9	1	1	0	1	0.58	1	1	1_0.gif
10	1	4	0	4	0.317	4	1	4_0.gif
11	1	2	0	2	0.375	2	1	2_0.gif
12	1	1	0	1	0.426	1	1	1_0.gif
13	1	3	0	3	0.386	3	1	3_0.gif
14	1	4	0	4	0.296	4	1	4_0.gif
15	1	2	0	2	0.338	2	1	2_0.gif
16	1	4	2	6	0	4	n/a	4_2.gif
17	1	3	2	6	0	2	n/a	3_2.gif
18	1	1	2	2	0.872	4	0	1_2.gif
19	1	2	2	2	0.003	3	0	2_2.gif
20	1	4	2	1	0.868	1	1	4_2.gif
21	1	2	2	1	0.004	2	0	2_2.gif
22	1	1	2	4	0.729	4	1	1_2.gif
23	1	3	2	4	0.006	2	0	3_2.gif
24	1	1	2	6	0	1	n/a	1_2.gif
25	1	2	2	6	0	3	n/a	2_2.gif
26	1	4	2	6	0	1	n/a	4_2.gif
27.001	1	1	2	1	0.091	2	0	1_2.gif
28.001	1	4	2	2	0.002	4	0	4_2.gif
29.001	1	2	2	4	0.413	1	0	2_2.gif
30.001	1	3	2	6	0	4	n/a	3_2.gif
31.001	1	1	2	6	0	2	n/a	1_2.gif
32.001	1	2	0	2	0.786	2	1	2_0.gif
33.001	1	4	0	4	0.461	4	1	4_0.gif
34.001	1	1	0	1	0.465	1	1	1_0.gif
35.001	1	2	0	2	0.382	2	1	2_0.gif
36.001	1	1	0	1	0.462	1	1	1_0.gif
37.001	1	3	0	3	0.431	3	1	3_0.gif
38.001	1	4	0	4	0.498	4	1	4_0.gif
39.001	1	3	0	3	0.402	3	1	3_0.gif
40.001	1	4	0	4	0.522	4	1	4_0.gif
41.001	1	2	0	2	0.309	2	1	2_0.gif
42.001	1	1	0	1	0.339	1	1	1_0.gif
43.001	1	4	0	4	0.465	4	1	4_0.gif
44.001	1	2	0	2	0.295	2	1	2_0.gif
45.001	1	3	0	3	0.303	3	1	3_0.gif
46.001	1	4	0	4	0.256	4	1	4_0.gif
47.001	1	2	0	2	0.245	2	1	2_0.gif
48.001	1	3	2	3	0.465	4	0	3_2.gif
49.001	1	4	2	6	0	2	n/a	4_2.gif
50.001	1	1	2	6	0	3	n/a	1_2.gif
51.001	1	2	2	3	0.065	4	0	2_2.gif
52.001	1	3	2	2	0.003	1	0	3_2.gif
53.001	1	2	2	1	0.116	2	0	2_2.gif
54.001	1	1	2	3	0.912	3	1	1_2.gif
55.001	1	3	2	3	0.004	2	0	3_2.gif
56.001	1	1	2	2	0.003	1	0	1_2.gif
57.001	1	2	2	6	0	3	n/a	2_2.gif
58.001	1	3	2	6	0	1	n/a	3_2.gif
59.001	1	2	2	6	0	2	n/a	2_2.gif
60.001	1	1	2	6	0	3	n/a	1_2.gif
61.001	1	2	2	6	0	2	n/a	2_2.gif
62.001	1	3	2	6	0	1	n/a	3_2.gif
63.001	1	2	2	2	0.962	2	1	2_2.gif
64.002	1	4	0	2	0.003	4	0	4_0.gif
65.002	1	1	0	4	0.003	1	0	1_0.gif
66.002	1	4	0	4	0.555	4	1	4_0.gif
67.002	1	2	0	2	0.571	2	1	2_0.gif
68.002	1	4	0	4	0.609	4	1	4_0.gif
69.002	1	1	0	1	0.444	1	1	1_0.gif
70.002	1	4	0	4	0.434	4	1	4_0.gif
71.002	1	1	0	1	0.472	1	1	1_0.gif
72.002	1	3	0	3	0.366	3	1	3_0.gif
73.002	1	2	0	2	0.561	2	1	2_0.gif
74.002	1	1	0	1	0.495	1	1	1_0.gif
75.002	1	2	0	2	0.421	2	1	2_0.gif
76.002	1	1	0	1	0.715	1	1	1_0.gif
77.002	1	4	0	4	0.529	4	1	4_0.gif
78.002	1	1	0	1	0.437	1	1	1_0.gif
79.002	1	4	0	4	0.559	4	1	4_0.gif
80.002	1	3	2	6	0	1	n/a	3_2.gif
81.002	1	2	2	6	0	4	n/a	2_2.gif
82.002	1	3	2	6	0	3	n/a	3_2.gif
83.002	1	2	2	3	0.498	2	0	2_2.gif
84.002	1	3	2	2	0.003	3	0	3_2.gif
85.002	1	2	2	2	0.004	2	1	2_2.gif
86.002	1	4	2	6	0	3	n/a	4_2.gif
87.002	1	1	2	1	0.537	2	0	1_2.gif
88.002	1	3	2	3	0.168	4	0	3_2.gif
89.002	1	2	2	6	0	1	n/a	2_2.gif
90.002	1	1	2	6	0	3	n/a	1_2.gif
91.002	1	4	2	6	0	2	n/a	4_2.gif
92.003	1	1	2	6	0	1	n/a	1_2.gif
93.003	1	4	2	1	0.156	4	0	4_2.gif
94.003	1	1	2	4	0.4	1	0	1_2.gif
95.003	1	2	2	1	0.003	4	0	2_2.gif
96.003	1	1	0	1	0.815	1	1	1_0.gif
97.003	1	3	0	1	0.003	3	0	3_0.gif
98.003	1	1	0	1	0.462	1	1	1_0.gif
99.003	1	2	0	2	0.382	2	1	2_0.gif
100.003	1	1	0	1	0.373	1	1	1_0.gif
101.003	1	4	0	4	0.459	4	1	4_0.gif
102.003	1	2	0	2	0.883	2	1	2_0.gif
103.003	1	4	0	2	0.003	4	0	4_0.gif
104.003	1	2	0	4	0.003	2	0	2_0.gif
105.003	1	1	0	1	0.326	1	1	1_0.gif
106.003	1	4	0	4	0.511	4	1	4_0.gif
107.003	1	2	0	2	0.483	2	1	2_0.gif
108.003	1	1	0	1	0.917	1	1	1_0.gif
109.003	1	4	0	1	0.003	4	0	4_0.gif
110.003	1	2	0	4	0.299	2	0	2_0.gif
111.003	1	3	0	2	0.004	3	0	3_0.gif
112.003	1	1	2	6	0	2	n/a	1_2.gif
113.003	1	3	2	6	0	3	n/a	3_2.gif
114.003	1	2	2	6	0	1	n/a	2_2.gif
115.003	1	4	2	1	0.072	3	0	4_2.gif
116.003	1	2	2	2	0.425	2	1	2_2.gif
117.003	1	1	2	2	0.274	4	0	1_2.gif
118.003	1	3	2	2	0.66	2	1	3_2.gif
119.003	1	2	2	6	0	1	n/a	2_2.gif
120.003	1	1	2	6	0	3	n/a	1_2.gif
121.003	1	2	2	2	0.703	2	1	2_2.gif
122.003	1	4	2	6	0	1	n/a	4_2.gif
123.003	1	1	2	6	0	2	n/a	1_2.gif
124.003	1	4	2	6	0	4	n/a	4_2.gif
125.003	1	1	2	2	0.485	1	0	1_2.gif
126.003	1	2	2	4	0.21	4	1	2_2.gif
127.003	1	4	2	6	0	1	n/a	4_2.gif
128.004	1	3	0	3	0.695	3	1	3_0.gif
129.004	1	4	0	4	0.637	4	1	4_0.gif
130.004	1	1	0	4	0.003	1	0	1_0.gif
131.004	1	4	0	4	0.434	4	1	4_0.gif
132.004	1	2	0	2	0.419	2	1	2_0.gif
133.004	1	4	0	4	0.473	4	1	4_0.gif
134.004	1	3	0	3	0.396	3	1	3_0.gif
135.004	1	2	0	2	0.33	2	1	2_0.gif
136.004	1	1	0	1	0.309	1	1	1_0.gif
137.004	1	4	0	4	0.454	4	1	4_0.gif
138.004	1	2	0	2	0.536	2	1	2_0.gif
139.004	1	1	0	1	0.39	1	1	1_0.gif
140.004	1	4	0	4	0.611	4	1	4_0.gif
141.004	1	1	0	4	0.003	1	0	1_0.gif
142.004	1	2	0	2	0.444	2	1	2_0.gif
143.004	1	1	0	1	0.472	1	1	1_0.gif
144.004	1	3	2	6	0	2	n/a	3_2.gif
145.004	1	4	2	6	0	1	n/a	4_2.gif
146.004	1	2	2	6	0	3	n/a	2_2.gif
147.004	1	3	2	3	0.531	4	0	3_2.gif
148.004	1	4	2	4	0.333	2	0	4_2.gif
149.004	1	2	2	2	0.198	3	0	2_2.gif
150.004	1	3	2	6	0	4	n/a	3_2.gif
151.004	1	2	2	3	0.067	2	0	2_2.gif
152.004	1	3	2	6	0	3	n/a	3_2.gif
153.004	1	1	2	6	0	2	n/a	1_2.gif
154.004	1	2	2	6	0	3	n/a	2_2.gif
155.004	1	1	2	6	0	1	n/a	1_2.gif
156.004	1	3	2	6	0	2	n/a	3_2.gif
157.004	1	1	2	6	0	1	n/a	1_2.gif
158.004	1	3	2	1	0.273	3	0	3_2.gif
159.004	1	2	2	6	0	1	n/a	2_2.gif
160.005	1	3	0	3	0.683	3	1	3_0.gif
161.005	1	2	0	2	0.444	2	1	2_0.gif
162.005	1	4	0	4	0.447	4	1	4_0.gif
163.005	1	1	0	1	0.339	1	1	1_0.gif
164.005	1	3	0	3	0.324	3	1	3_0.gif
165.005	1	1	0	1	0.406	1	1	1_0.gif
166.005	1	2	0	2	0.348	2	1	2_0.gif
167.005	1	1	0	1	0.37	1	1	1_0.gif
168.005	1	2	0	2	0.516	2	1	2_0.gif
169.005	1	4	0	4	0.551	4	1	4_0.gif
170.005	1	1	0	1	0.43	1	1	1_0.gif
171.005	1	4	0	4	0.648	4	1	4_0.gif
172.005	1	2	0	4	0.003	2	0	2_0.gif
173.005	1	3	0	3	0.39	3	1	3_0.gif
174.005	1	2	0	2	0.333	2	1	2_0.gif
175.005	1	3	0	3	0.485	3	1	3_0.gif
176.005	1	4	2	6	0	2	n/a	4_2.gif
177.005	1	1	2	6	0	3	n/a	1_2.gif
178.005	1	3	2	6	0	4	n/a	3_2.gif
179.005	1	1	2	4	0.534	1	0	1_2.gif
180.005	1	4	2	1	0.26	3	0	4_2.gif
181.005	1	1	2	1	0.937	1	1	1_2.gif
182.005	1	2	2	1	0.003	4	0	2_2.gif
183.005	1	1	2	6	0	1	n/a	1_2.gif
184.005	1	3	2	6	0	2	n/a	3_2.gif
185.005	1	1	2	6	0	1	n/a	1_2.gif
186.005	1	4	2	6	0	3	n/a	4_2.gif
187.005	1	3	2	6	0	1	n/a	3_2.gif
188.005	1	2	2	2	0.067	4	0	2_2.gif
189.005	1	1	2	4	0.003	3	0	1_2.gif
190.005	1	3	2	1	0.571	2	0	3_2.gif
191.005	1	2	2	2	0.265	1	0	2_2.gif
192.006	1	3	0	3	0.919	3	1	3_0.gif
193.006	1	2	0	3	0.003	2	0	2_0.gif
194.006	1	4	0	4	0.521	4	1	4_0.gif
195.006	1	2	0	2	0.36	2	1	2_0.gif
196.006	1	1	0	1	0.405	1	1	1_0.gif
197.006	1	4	0	4	0.688	4	1	4_0.gif
198.006	1	2	0	4	0.003	2	0	2_0.gif
199.006	1	1	0	1	0.388	1	1	1_0.gif
200.006	1	3	0	3	0.348	3	1	3_0.gif
201.006	1	4	0	4	0.491	4	1	4_0.gif
202.006	1	2	0	2	0.354	2	1	2_0.gif
203.006	1	4	0	4	0.605	4	1	4_0.gif
204.006	1	3	0	3	0.379	3	1	3_0.gif
205.006	1	1	0	1	0.475	1	1	1_0.gif
206.006	1	2	0	2	0.276	2	1	2_0.gif
207.006	1	4	0	4	0.626	4	1	4_0.gif
208.006	1	2	2	6	0	2	n/a	2_2.gif
209.006	1	1	2	6	0	4	n/a	1_2.gif
210.006	1	3	2	1	0.71	2	0	3_2.gif
211.006	1	1	2	3	0.152	1	0	1_2.gif
212.006	1	2	2	3	0.435	3	1	2_2.gif
213.006	1	4	2	6	0	1	n/a	4_2.gif
214.006	1	1	2	6	0	2	n/a	1_2.gif
215.006	1	4	2	6	0	4	n/a	4_2.gif
216.006	1	2	2	1	0.064	1	1	2_2.gif
217.006	1	3	2	6	0	4	n/a	3_2.gif
218.006	1	1	2	4	0.302	2	0	1_2.gif
219.006	1	2	2	2	0.003	3	0	2_2.gif
220.006	1	4	2	1	0.004	1	1	4_2.gif
221.006	1	1	2	2	0.161	2	1	1_2.gif
222.006	1	2	2	6	0	4	n/a	2_2.gif
223.006	1	1	2	6	0	1	n/a	1_2.gif
224.007	1	3	0	3	0.712	3	1	3_0.gif
225.007	1	4	0	4	0.699	4	1	4_0.gif
226.007	1	3	0	4	0.003	3	0	3_0.gif
227.007	1	4	0	4	0.558	4	1	4_0.gif
228.007	1	2	0	2	0.382	2	1	2_0.gif
229.007	1	1	0	1	0.326	1	1	1_0.gif
230.007	1	4	0	4	0.596	4	1	4_0.gif
231.007	1	2	0	2	0.428	2	1	2_0.gif
232.007	1	3	0	3	0.38	3	1	3_0.gif
233.007	1	4	0	4	0.556	4	1	4_0.gif
234.007	1	2	0	2	0.389	2	1	2_0.gif
235.007	1	3	0	3	0.432	3	1	3_0.gif
236.007	1	4	0	4	0.538	4	1	4_0.gif
237.007	1	1	0	1	0.389	1	1	1_0.gif
238.007	1	2	0	2	0.28	2	1	2_0.gif
239.007	1	3	0	3	0.325	3	1	3_0.gif
240.007	1	2	2	6	0	2	n/a	2_2.gif
241.007	1	1	2	6	0	3	n/a	1_2.gif
242.007	1	3	2	1	0.69	2	0	3_2.gif
243.007	1	1	2	2	0.451	1	0	1_2.gif
244.007	1	2	2	3	0.003	3	1	2_2.gif
245.007	1	3	2	1	0.004	1	1	3_2.gif
246.007	1	2	2	6	0	2	n/a	2_2.gif
247.007	1	1	2	6	0	3	n/a	1_2.gif
248.007	1	2	2	6	0	2	n/a	2_2.gif
249.007	1	3	2	1	0.694	1	1	3_2.gif
250.007	1	2	2	1	0.506	2	0	2_2.gif
251.007	1	4	2	3	0.006	3	1	4_2.gif
252.007	1	1	2	2	0.405	2	1	1_2.gif
253.007	1	4	2	4	0.311	4	1	4_2.gif
254.007	1	2	2	1	0.114	1	1	2_2.gif
255.007	1	4	2	6	0	4	n/a	4_2.gif
