onset	duration	nback_display	trial_type	response	response_time	correct_response	correct	stim_file
0	1	4	0	6	0	4	n/a	4_0.gif
1	1	3	0	4	0.123	3	0	3_0.gif
2	1	1	0	1	0.431	1	1	1_0.gif
3	1	4	0	4	0.579	4	1	4_0.gif
4	1	3	0	3	0.382	3	1	3_0.gif
5	1	4	0	4	0.488	4	1	4_0.gif
6	1	1	0	1	0.403	1	1	1_0.gif
7	1	4	0	4	0.534	4	1	4_0.gif
8	1	2	0	2	0.345	2	1	2_0.gif
9	1	3	0	3	0.423	3	1	3_0.gif
10	1	2	0	2	0.387	2	1	2_0.gif
11	1	3	0	3	0.37	3	1	3_0.gif
12	1	4	0	4	0.492	4	1	4_0.gif
13	1	2	0	2	0.375	2	1	2_0.gif
14	1	4	0	4	0.419	4	1	4_0.gif
15	1	3	0	3	0.356	3	1	3_0.gif
16	1	2	2	6	0	4	n/a	2_2.gif
17	1	4	2	2	0.929	3	0	4_2.gif
18	1	3	2	2	0.003	2	1	3_2.gif
19	1	1	2	4	0.003	4	1	1_2.gif
20	1	4	2	1	0.875	3	0	4_2.gif
21	1	2	2	1	0.003	1	1	2_2.gif
22	1	4	2	2	0.654	4	0	4_2.gif
23	1	2	2	4	0.745	2	0	2_2.gif
24	1	1	2	2	0.789	4	0	1_2.gif
25	1	3	2	1	0.748	2	0	3_2.gif
26	1	4	2	3	0.718	1	0	4_2.gif
27	1	2	2	4	0.638	3	0	2_2.gif
28	1	4	2	2	0.687	4	0	4_2.gif
29	1	3	2	4	0.666	2	0	3_2.gif
30	1	4	2	3	0.687	4	0	4_2.gif
31	1	3	2	4	0.688	3	0	3_2.gif
32.001	1	4	0	6	0	4	n/a	4_0.gif
33.001	1	2	0	4	0.178	2	0	2_0.gif
34.001	1	3	0	2	0.835	3	0	3_0.gif
35.001	1	2	0	3	0.593	2	0	2_0.gif
36.001	1	4	0	2	0.604	4	0	4_0.gif
37.001	1	1	0	4	0.575	1	0	1_0.gif
38.001	1	3	0	1	0.864	3	0	3_0.gif
39.001	1	4	0	1	0.003	4	0	4_0.gif
40.001	1	1	0	4	0.769	1	0	1_0.gif
41.001	1	3	0	1	0.721	3	0	3_0.gif
42.001	1	1	0	4	0.669	1	0	1_0.gif
43.001	1	2	0	6	0	2	n/a	2_0.gif
44.001	1	4	0	2	0.664	4	0	4_0.gif
45.001	1	2	0	4	0.707	2	0	2_0.gif
46.001	1	4	0	2	0.586	4	0	4_0.gif
47.001	1	3	0	4	0.976	3	0	3_0.gif
48.001	1	2	2	4	0.003	4	1	2_2.gif
49.001	1	4	2	2	0.685	3	0	4_2.gif
50.001	1	1	2	1	0.618	2	0	1_2.gif
51.001	1	2	2	6	0	4	n/a	2_2.gif
52.001	1	4	2	2	0.241	1	0	4_2.gif
53.001	1	1	2	4	0.868	2	0	1_2.gif
54.001	1	2	2	4	0.003	4	1	2_2.gif
55.001	1	3	2	2	0.715	1	0	3_2.gif
56.001	1	4	2	3	0.741	2	0	4_2.gif
57.001	1	1	2	4	0.682	3	0	1_2.gif
58.001	1	4	2	1	0.606	4	0	4_2.gif
59.001	1	3	2	1	0.751	1	1	3_2.gif
60.001	1	1	2	6	0	4	n/a	1_2.gif
61.001	1	3	2	3	0.21	3	1	3_2.gif
62.001	1	2	2	1	0.003	1	1	2_2.gif
63.001	1	1	2	3	0.03	3	1	1_2.gif
64.001	1	4	0	6	0	4	n/a	4_0.gif
65.001	1	3	0	1	0.125	3	0	3_0.gif
66.001	1	4	0	4	0.003	4	1	4_0.gif
67.001	1	1	0	6	0	1	n/a	1_0.gif
68.001	1	2	0	1	0.229	2	0	2_0.gif
69.001	1	3	0	1	0.412	3	0	3_0.gif
70.001	1	1	0	2	0.004	1	0	1_0.gif
71.001	1	3	0	3	0.031	3	1	3_0.gif
72.001	1	2	0	1	0.003	2	0	2_0.gif
73.001	1	3	0	3	0.23	3	1	3_0.gif
74.001	1	4	0	3	0.139	4	0	4_0.gif
75.001	1	1	0	1	0.102	1	1	1_0.gif
76.001	1	3	0	1	0.625	3	0	3_0.gif
77.001	1	2	0	6	0	2	n/a	2_0.gif
78.001	1	3	0	2	0.17	3	0	3_0.gif
79.001	1	1	0	3	0.004	1	0	1_0.gif
80.002	1	4	2	1	0.536	3	0	4_2.gif
81.002	1	3	2	4	0.565	1	0	3_2.gif
82.002	1	4	2	3	0.664	4	0	4_2.gif
83.002	1	3	2	4	0.714	3	0	3_2.gif
84.002	1	1	2	6	0	4	n/a	1_2.gif
85.002	1	4	2	3	0.131	3	1	4_2.gif
86.002	1	2	2	4	0.848	1	0	2_2.gif
87.002	1	3	2	4	0.002	4	1	3_2.gif
88.002	1	4	2	2	0.003	2	1	4_2.gif
89.002	1	1	2	4	0.756	3	0	1_2.gif
90.002	1	3	2	1	0.698	4	0	3_2.gif
91.002	1	1	2	3	0.611	1	0	1_2.gif
92.002	1	2	2	1	0.656	3	0	2_2.gif
93.002	1	3	2	2	0.571	1	0	3_2.gif
94.002	1	2	2	3	0.708	2	0	2_2.gif
95.002	1	4	2	2	0.73	3	0	4_2.gif
96.002	1	1	0	4	0.563	1	0	1_0.gif
97.002	1	4	0	1	0.598	4	0	4_0.gif
98.002	1	3	0	4	0.761	3	0	3_0.gif
99.002	1	2	0	3	0.648	2	0	2_0.gif
100.002	1	3	0	2	0.688	3	0	3_0.gif
101.002	1	2	0	3	0.516	2	0	2_0.gif
102.002	1	1	0	6	0	1	n/a	1_0.gif
103.002	1	3	0	1	0.024	3	0	3_0.gif
104.002	1	1	0	3	0.725	1	0	1_0.gif
105.002	1	2	0	1	0.613	2	0	2_0.gif
106.002	1	4	0	2	0.708	4	0	4_0.gif
107.002	1	1	0	1	0.674	1	1	1_0.gif
108.002	1	4	0	6	0	4	n/a	4_0.gif
109.002	1	2	0	4	0.125	2	0	2_0.gif
110.002	1	4	0	4	0.513	4	1	4_0.gif
111.002	1	2	0	2	0.531	2	1	2_0.gif
112.002	1	4	2	4	0.511	4	1	4_2.gif
113.002	1	1	2	6	0	2	n/a	1_2.gif
114.002	1	3	2	3	0.514	4	0	3_2.gif
115.002	1	1	2	6	0	1	n/a	1_2.gif
116.002	1	2	2	1	0.647	3	0	2_2.gif
117.002	1	4	2	2	0.594	1	0	4_2.gif
118.002	1	1	2	6	0	2	n/a	1_2.gif
119.002	1	3	2	1	0.814	4	0	3_2.gif
120.002	1	4	2	3	0.807	1	0	4_2.gif
121.002	1	3	2	3	0.003	3	1	3_2.gif
122.002	1	4	2	2	0.491	4	0	4_2.gif
123.002	1	2	2	2	0.616	3	0	2_2.gif
124.002	1	3	2	6	0	4	n/a	3_2.gif
125.002	1	1	2	6	0	2	n/a	1_2.gif
126.002	1	4	2	6	0	3	n/a	4_2.gif
127.002	1	2	2	6	0	1	n/a	2_2.gif
128.003	1	1	0	1	0.792	1	1	1_0.gif
129.003	1	4	0	4	0.584	4	1	4_0.gif
130.003	1	3	0	3	0.417	3	1	3_0.gif
131.003	1	1	0	1	0.61	1	1	1_0.gif
132.003	1	3	0	3	0.545	3	1	3_0.gif
133.003	1	4	0	4	0.51	4	1	4_0.gif
134.003	1	2	0	2	0.402	2	1	2_0.gif
135.003	1	3	0	3	0.473	3	1	3_0.gif
136.003	1	4	0	4	0.557	4	1	4_0.gif
137.003	1	2	0	4	0.003	2	0	2_0.gif
138.003	1	4	0	4	0.569	4	1	4_0.gif
139.003	1	3	0	3	0.483	3	1	3_0.gif
140.003	1	2	0	2	0.474	2	1	2_0.gif
141.003	1	4	0	4	0.494	4	1	4_0.gif
142.003	1	2	0	2	0.429	2	1	2_0.gif
143.003	1	4	0	4	0.537	4	1	4_0.gif
144.003	1	1	2	6	0	2	n/a	1_2.gif
145.004	1	2	2	2	0.729	4	0	2_2.gif
146.004	1	4	2	6	0	1	n/a	4_2.gif
147.004	1	3	2	6	0	2	n/a	3_2.gif
148.004	1	2	2	6	0	4	n/a	2_2.gif
149.004	1	3	2	2	0.801	3	0	3_2.gif
150.004	1	4	2	3	0.643	2	0	4_2.gif
151.004	1	3	2	2	0.808	3	0	3_2.gif
152.004	1	2	2	6	0	4	n/a	2_2.gif
153.004	1	4	2	2	0.696	3	0	4_2.gif
154.004	1	3	2	6	0	2	n/a	3_2.gif
155.004	1	2	2	3	0.652	4	0	2_2.gif
156.004	1	4	2	2	0.589	3	0	4_2.gif
157.004	1	3	2	6	0	2	n/a	3_2.gif
158.004	1	2	2	3	0.031	4	0	2_2.gif
159.004	1	1	2	2	0.608	3	0	1_2.gif
160.004	1	3	0	6	0	3	n/a	3_0.gif
161.004	1	1	0	3	0.166	1	0	1_0.gif
162.004	1	4	0	1	0.969	4	0	4_0.gif
163.004	1	1	0	1	0.003	1	1	1_0.gif
164.004	1	4	0	1	0.57	4	0	4_0.gif
165.004	1	3	0	4	0.773	3	0	3_0.gif
166.004	1	2	0	2	0.727	2	1	2_0.gif
167.004	1	1	0	6	0	1	n/a	1_0.gif
168.004	1	3	0	3	0.516	3	1	3_0.gif
169.004	1	2	0	2	0.445	2	1	2_0.gif
170.004	1	4	0	4	0.368	4	1	4_0.gif
171.004	1	1	0	1	0.533	1	1	1_0.gif
172.004	1	4	0	4	0.59	4	1	4_0.gif
173.004	1	2	0	2	0.415	2	1	2_0.gif
174.004	1	4	0	3	0.405	4	0	4_0.gif
175.004	1	2	0	2	0.513	2	1	2_0.gif
176.004	1	4	2	4	0.553	4	1	4_2.gif
177.004	1	2	2	4	0.692	2	0	2_2.gif
178.004	1	3	2	2	0.664	4	0	3_2.gif
179.004	1	2	2	3	0.673	2	0	2_2.gif
180.004	1	3	2	2	0.742	3	0	3_2.gif
181.004	1	4	2	3	0.88	2	0	4_2.gif
182.004	1	3	2	3	0.003	3	1	3_2.gif
183.004	1	1	2	3	0.852	4	0	1_2.gif
184.004	1	3	2	3	0.003	3	1	3_2.gif
185.004	1	2	2	1	0.065	1	1	2_2.gif
186.004	1	4	2	1	0.936	3	0	4_2.gif
187.004	1	3	2	1	0.003	2	0	3_2.gif
188.004	1	1	2	4	0.562	4	1	1_2.gif
189.004	1	4	2	1	0.196	3	0	4_2.gif
190.004	1	3	2	4	0.715	1	0	3_2.gif
191.004	1	4	2	3	0.66	4	0	4_2.gif
192.005	1	1	0	1	0.651	1	1	1_0.gif
193.005	1	4	0	4	0.55	4	1	4_0.gif
194.005	1	2	0	2	0.478	2	1	2_0.gif
195.005	1	3	0	3	0.45	3	1	3_0.gif
196.005	1	2	0	2	0.459	2	1	2_0.gif
197.005	1	3	0	3	0.509	3	1	3_0.gif
198.005	1	4	0	4	0.659	4	1	4_0.gif
199.005	1	2	0	2	0.466	2	1	2_0.gif
200.005	1	4	0	4	0.562	4	1	4_0.gif
201.005	1	3	0	3	0.553	3	1	3_0.gif
202.005	1	2	0	2	0.422	2	1	2_0.gif
203.005	1	4	0	4	0.516	4	1	4_0.gif
204.005	1	3	0	3	0.41	3	1	3_0.gif
205.005	1	1	0	1	0.349	1	1	1_0.gif
206.005	1	4	0	4	0.46	4	1	4_0.gif
207.005	1	2	0	2	0.429	2	1	2_0.gif
208.005	1	4	2	6	0	4	n/a	4_2.gif
209.005	1	2	2	4	0.499	2	0	2_2.gif
210.005	1	1	2	2	0.353	4	0	1_2.gif
211.005	1	3	2	1	0.323	2	0	3_2.gif
212.005	1	4	2	3	0.54	1	0	4_2.gif
213.005	1	2	2	4	0.919	3	0	2_2.gif
214.005	1	4	2	4	0.004	4	1	4_2.gif
215.005	1	3	2	4	0.789	2	0	3_2.gif
216.005	1	4	2	6	0	4	n/a	4_2.gif
217.005	1	3	2	3	0.199	3	1	3_2.gif
218.005	1	4	2	6	0	4	n/a	4_2.gif
219.005	1	2	2	6	0	3	n/a	2_2.gif
220.005	1	3	2	2	0.645	4	0	3_2.gif
221.005	1	2	2	3	0.499	2	0	2_2.gif
222.005	1	4	2	6	0	3	n/a	4_2.gif
223.005	1	1	2	2	0.19	2	1	1_2.gif
224.006	1	3	0	4	0.093	3	0	3_0.gif
225.006	1	4	0	3	0.003	4	0	4_0.gif
226.006	1	1	0	1	0.462	1	1	1_0.gif
227.006	1	3	0	3	0.45	3	1	3_0.gif
228.006	1	1	0	1	0.531	1	1	1_0.gif
229.006	1	2	0	2	0.485	2	1	2_0.gif
230.006	1	4	0	4	0.319	4	1	4_0.gif
231.006	1	2	0	2	0.414	2	1	2_0.gif
232.006	1	4	0	4	0.438	4	1	4_0.gif
233.006	1	3	0	3	0.316	3	1	3_0.gif
234.006	1	2	0	2	0.361	2	1	2_0.gif
235.006	1	4	0	4	0.532	4	1	4_0.gif
236.006	1	1	0	1	0.391	1	1	1_0.gif
237.006	1	2	0	2	0.391	2	1	2_0.gif
238.006	1	4	0	4	0.546	4	1	4_0.gif
239.006	1	1	0	1	0.36	1	1	1_0.gif
240.006	1	2	2	6	0	4	n/a	2_2.gif
241.006	1	3	2	2	0.378	1	0	3_2.gif
242.006	1	4	2	3	0.226	2	0	4_2.gif
243.006	1	1	2	4	0.26	3	0	1_2.gif
244.006	1	4	2	1	0.326	4	0	4_2.gif
245.006	1	3	2	4	0.636	1	0	3_2.gif
246.006	1	1	2	3	0.605	4	0	1_2.gif
247.006	1	3	2	1	0.882	3	0	3_2.gif
248.006	1	2	2	1	0.003	1	1	2_2.gif
249.006	1	1	2	2	0.615	3	0	1_2.gif
250.006	1	4	2	1	0.961	2	0	4_2.gif
251.006	1	3	2	1	0.003	1	1	3_2.gif
252.006	1	4	2	3	0.363	4	0	4_2.gif
253.006	1	1	2	4	0.82	3	0	1_2.gif
254.006	1	2	2	1	0.389	4	0	2_2.gif
255.006	1	3	2	2	0.314	1	0	3_2.gif
