onset	duration	nback_display	trial_type	response	response_time	correct_response	correct	stim_file
0	1	3	0	3	0.837	3	1	3_0.gif
1	1	4	0	3	0.002	4	0	4_0.gif
2	1	3	0	3	0.397	3	1	3_0.gif
3	1	2	0	2	0.434	2	1	2_0.gif
4	1	3	0	3	0.385	3	1	3_0.gif
5	1	4	0	4	0.336	4	1	4_0.gif
6	1	3	0	3	0.356	3	1	3_0.gif
7	1	2	0	2	0.329	2	1	2_0.gif
8	1	1	0	1	0.294	1	1	1_0.gif
9	1	3	0	3	0.367	3	1	3_0.gif
10	1	1	0	1	0.532	1	1	1_0.gif
11	1	2	0	2	0.391	2	1	2_0.gif
12	1	3	0	3	0.341	3	1	3_0.gif
13	1	1	0	1	0.45	1	1	1_0.gif
14	1	3	0	3	0.367	3	1	3_0.gif
15	1	1	0	1	0.402	1	1	1_0.gif
16	1	2	2	6	0	3	n/a	2_2.gif
17	1	4	2	6	0	1	n/a	4_2.gif
18	1	3	2	2	0.617	2	1	3_2.gif
19	1	4	2	4	0.519	4	1	4_2.gif
20	1	1	2	3	0.774	3	1	1_2.gif
21	1	3	2	4	0.492	4	1	3_2.gif
22	1	1	2	1	0.459	1	1	1_2.gif
23	1	2	2	3	0.298	3	1	2_2.gif
24	1	4	2	1	0.102	1	1	4_2.gif
25	1	1	2	2	0.116	2	1	1_2.gif
26	1	4	2	4	0.131	4	1	4_2.gif
27	1	2	2	1	0.003	1	1	2_2.gif
28	1	4	2	4	0.004	4	1	4_2.gif
29	1	1	2	1	0.672	2	0	1_2.gif
30	1	3	2	6	0	4	n/a	3_2.gif
31	1	4	2	6	0	1	n/a	4_2.gif
32	1	2	0	2	0.877	2	1	2_0.gif
33	1	1	0	2	0.004	1	0	1_0.gif
34	1	4	0	4	0.564	4	1	4_0.gif
35	1	1	0	1	0.395	1	1	1_0.gif
36	1	4	0	4	0.508	4	1	4_0.gif
37	1	2	0	2	0.465	2	1	2_0.gif
38	1	3	0	3	0.322	3	1	3_0.gif
39	1	1	0	1	0.308	1	1	1_0.gif
40	1	2	0	2	0.427	2	1	2_0.gif
41	1	1	0	1	0.468	1	1	1_0.gif
42	1	4	0	4	0.576	4	1	4_0.gif
43	1	3	0	3	0.941	3	1	3_0.gif
44	1	1	0	3	0.004	1	0	1_0.gif
45	1	2	0	2	0.392	2	1	2_0.gif
46	1	1	0	1	0.453	1	1	1_0.gif
47	1	3	0	3	0.367	3	1	3_0.gif
48.001	1	2	2	6	0	1	n/a	2_2.gif
49.001	1	3	2	6	0	3	n/a	3_2.gif
50.001	1	4	2	2	0.403	2	1	4_2.gif
51.001	1	1	2	3	0.372	3	1	1_2.gif
52.001	1	2	2	4	0.396	4	1	2_2.gif
53.001	1	4	2	1	0.319	1	1	4_2.gif
54.001	1	3	2	2	0.388	2	1	3_2.gif
55.001	1	2	2	4	0.302	4	1	2_2.gif
56.001	1	4	2	3	0.119	3	1	4_2.gif
57.001	1	2	2	2	0.003	2	1	2_2.gif
58.001	1	3	2	4	0.003	4	1	3_2.gif
59.001	1	2	2	3	0.572	2	0	2_2.gif
60.001	1	4	2	2	0.455	3	0	4_2.gif
61.001	1	3	2	4	0.531	2	0	3_2.gif
62.001	1	4	2	3	0.54	4	0	4_2.gif
63.001	1	3	2	4	0.43	3	0	3_2.gif
64.001	1	1	0	1	0.717	1	1	1_0.gif
65.001	1	2	0	2	0.417	2	1	2_0.gif
66.001	1	4	0	4	0.52	4	1	4_0.gif
67.001	1	2	0	2	0.44	2	1	2_0.gif
68.001	1	1	0	1	0.379	1	1	1_0.gif
69.001	1	3	0	3	0.412	3	1	3_0.gif
70.001	1	4	0	4	0.498	4	1	4_0.gif
71.001	1	2	0	2	0.33	2	1	2_0.gif
72.001	1	1	0	1	0.282	1	1	1_0.gif
73.001	1	2	0	6	0	2	n/a	2_0.gif
74.001	1	4	0	4	0.328	4	1	4_0.gif
75.001	1	3	0	3	0.327	3	1	3_0.gif
76.001	1	1	0	1	0.304	1	1	1_0.gif
77.001	1	2	0	2	0.307	2	1	2_0.gif
78.001	1	4	0	4	0.378	4	1	4_0.gif
79.001	1	2	0	2	0.328	2	1	2_0.gif
80.001	1	3	2	6	0	4	n/a	3_2.gif
81.001	1	2	2	6	0	2	n/a	2_2.gif
82.001	1	4	2	3	0.62	3	1	4_2.gif
83.001	1	1	2	2	0.4	2	1	1_2.gif
84.001	1	3	2	4	0.348	4	1	3_2.gif
85.001	1	2	2	1	0.189	1	1	2_2.gif
86.001	1	4	2	3	0.066	3	1	4_2.gif
87.001	1	3	2	2	0.004	2	1	3_2.gif
88.001	1	4	2	4	0.004	4	1	4_2.gif
89.001	1	3	2	6	0	3	n/a	3_2.gif
90.001	1	1	2	6	0	4	n/a	1_2.gif
91.001	1	2	2	3	0.709	3	1	2_2.gif
92.001	1	1	2	1	0.359	1	1	1_2.gif
93.001	1	2	2	2	0.323	2	1	2_2.gif
94.001	1	4	2	1	0.113	1	1	4_2.gif
95.001	1	3	2	2	0.016	2	1	3_2.gif
96.002	1	2	0	4	0.008	2	0	2_0.gif
97.002	1	4	0	2	0.003	4	0	4_0.gif
98.002	1	1	0	1	0.674	1	1	1_0.gif
99.002	1	2	0	2	0.62	2	1	2_0.gif
100.002	1	4	0	4	0.481	4	1	4_0.gif
101.002	1	1	0	1	0.32	1	1	1_0.gif
102.002	1	2	0	2	0.269	2	1	2_0.gif
103.002	1	1	0	1	0.358	1	1	1_0.gif
104.002	1	3	0	3	0.383	3	1	3_0.gif
105.002	1	4	0	4	0.474	4	1	4_0.gif
106.002	1	2	0	2	0.327	2	1	2_0.gif
107.002	1	3	0	3	0.372	3	1	3_0.gif
108.002	1	1	0	1	0.293	1	1	1_0.gif
109.002	1	3	0	3	0.705	3	1	3_0.gif
110.002	1	1	0	1	0.433	1	1	1_0.gif
111.002	1	3	0	3	0.377	3	1	3_0.gif
112.002	1	4	2	6	0	1	n/a	4_2.gif
113.002	1	2	2	6	0	3	n/a	2_2.gif
114.002	1	4	2	4	0.835	4	1	4_2.gif
115.002	1	1	2	4	0.003	2	0	1_2.gif
116.002	1	2	2	4	0.098	4	1	2_2.gif
117.002	1	1	2	1	0.003	1	1	1_2.gif
118.002	1	3	2	1	0.585	2	0	3_2.gif
119.002	1	1	2	3	0.665	1	0	1_2.gif
120.002	1	2	2	1	0.613	3	0	2_2.gif
121.002	1	3	2	2	0.716	1	0	3_2.gif
122.002	1	2	2	3	0.546	2	0	2_2.gif
123.002	1	3	2	2	0.496	3	0	3_2.gif
124.002	1	4	2	3	0.495	2	0	4_2.gif
125.002	1	2	2	4	0.606	3	0	2_2.gif
126.002	1	1	2	2	0.658	4	0	1_2.gif
127.002	1	3	2	1	0.755	2	0	3_2.gif
128.002	1	1	0	1	0.719	1	1	1_0.gif
129.002	1	4	0	4	0.485	4	1	4_0.gif
130.002	1	3	0	3	0.387	3	1	3_0.gif
131.002	1	1	0	1	0.364	1	1	1_0.gif
132.002	1	2	0	2	0.279	2	1	2_0.gif
133.002	1	3	0	3	0.394	3	1	3_0.gif
134.002	1	4	0	4	0.525	4	1	4_0.gif
135.002	1	3	0	3	0.413	3	1	3_0.gif
136.002	1	2	0	2	0.35	2	1	2_0.gif
137.002	1	1	0	1	0.302	1	1	1_0.gif
138.002	1	4	0	4	0.559	4	1	4_0.gif
139.002	1	2	0	2	0.382	2	1	2_0.gif
140.002	1	4	0	4	0.463	4	1	4_0.gif
141.002	1	1	0	1	0.382	1	1	1_0.gif
142.002	1	4	0	4	0.443	4	1	4_0.gif
143.002	1	2	0	2	0.329	2	1	2_0.gif
144.003	1	1	2	6	0	4	n/a	1_2.gif
145.003	1	3	2	6	0	2	n/a	3_2.gif
146.003	1	4	2	1	0.855	1	1	4_2.gif
147.003	1	3	2	1	0.003	3	0	3_2.gif
148.003	1	2	2	4	0.518	4	1	2_2.gif
149.003	1	1	2	3	0.401	3	1	1_2.gif
150.003	1	2	2	2	0.117	2	1	2_2.gif
151.003	1	3	2	1	0.164	1	1	3_2.gif
152.003	1	2	2	2	0.059	2	1	2_2.gif
153.003	1	3	2	3	0.003	3	1	3_2.gif
154.003	1	2	2	2	0.05	2	1	2_2.gif
155.003	1	1	2	3	0.031	3	1	1_2.gif
156.003	1	3	2	2	0.003	2	1	3_2.gif
157.003	1	4	2	1	0.337	1	1	4_2.gif
158.003	1	2	2	6	0	3	n/a	2_2.gif
159.003	1	4	2	4	0.553	4	1	4_2.gif
160.003	1	2	0	2	0.247	2	1	2_0.gif
161.003	1	4	0	2	0.073	4	0	4_0.gif
162.003	1	2	0	2	0.641	2	1	2_0.gif
163.003	1	3	0	3	0.522	3	1	3_0.gif
164.003	1	1	0	1	0.463	1	1	1_0.gif
165.003	1	2	0	2	0.501	2	1	2_0.gif
166.003	1	1	0	1	0.488	1	1	1_0.gif
167.003	1	3	0	3	0.518	3	1	3_0.gif
168.003	1	4	0	4	0.497	4	1	4_0.gif
169.003	1	1	0	1	0.416	1	1	1_0.gif
170.003	1	4	0	4	0.453	4	1	4_0.gif
171.003	1	3	0	3	0.378	3	1	3_0.gif
172.003	1	1	0	1	0.392	1	1	1_0.gif
173.003	1	3	0	3	0.317	3	1	3_0.gif
174.003	1	4	0	4	0.485	4	1	4_0.gif
175.003	1	3	0	3	0.349	3	1	3_0.gif
176.003	1	1	2	6	0	4	n/a	1_2.gif
177.003	1	3	2	6	0	3	n/a	3_2.gif
178.003	1	4	2	1	0.365	1	1	4_2.gif
179.003	1	3	2	3	0.17	3	1	3_2.gif
180.003	1	2	2	4	0.107	4	1	2_2.gif
181.003	1	3	2	3	0.123	3	1	3_2.gif
182.003	1	2	2	2	0.01	2	1	2_2.gif
183.003	1	1	2	3	0.007	3	1	1_2.gif
184.003	1	2	2	2	0.004	2	1	2_2.gif
185.003	1	4	2	1	0.004	1	1	4_2.gif
186.003	1	2	2	4	0.768	2	0	2_2.gif
187.003	1	1	2	2	0.746	4	0	1_2.gif
188.003	1	2	2	1	0.76	2	0	2_2.gif
189.003	1	3	2	2	0.57	1	0	3_2.gif
190.003	1	4	2	3	0.591	2	0	4_2.gif
191.003	1	2	2	4	0.552	3	0	2_2.gif
192.004	1	1	0	1	0.747	1	1	1_0.gif
193.004	1	3	0	3	0.618	3	1	3_0.gif
194.004	1	4	0	4	0.566	4	1	4_0.gif
195.004	1	3	0	3	0.509	3	1	3_0.gif
196.004	1	2	0	2	0.518	2	1	2_0.gif
197.004	1	3	0	3	0.438	3	1	3_0.gif
198.004	1	4	0	4	0.582	4	1	4_0.gif
199.004	1	3	0	3	0.492	3	1	3_0.gif
200.004	1	2	0	2	0.369	2	1	2_0.gif
201.004	1	1	0	1	0.353	1	1	1_0.gif
202.004	1	3	0	3	0.502	3	1	3_0.gif
203.004	1	1	0	1	0.43	1	1	1_0.gif
204.004	1	2	0	2	0.499	2	1	2_0.gif
205.004	1	3	0	3	0.474	3	1	3_0.gif
206.004	1	1	0	1	0.389	1	1	1_0.gif
207.004	1	3	0	3	0.475	3	1	3_0.gif
208.004	1	1	2	6	0	1	n/a	1_2.gif
209.004	1	2	2	6	0	3	n/a	2_2.gif
210.004	1	4	2	1	0.468	1	1	4_2.gif
211.004	1	3	2	2	0.233	2	1	3_2.gif
212.004	1	4	2	4	0.19	4	1	4_2.gif
213.004	1	1	2	3	0.015	3	1	1_2.gif
214.004	1	3	2	4	0.003	4	1	3_2.gif
215.004	1	1	2	1	0.003	1	1	1_2.gif
216.004	1	2	2	3	0.003	3	1	2_2.gif
217.004	1	4	2	1	0.003	1	1	4_2.gif
218.004	1	1	2	2	0.004	2	1	1_2.gif
219.004	1	4	2	1	0.666	4	0	4_2.gif
220.004	1	2	2	4	0.621	1	0	2_2.gif
221.004	1	4	2	2	0.553	4	0	4_2.gif
222.004	1	1	2	4	0.55	2	0	1_2.gif
223.004	1	3	2	1	0.543	4	0	3_2.gif
224.004	1	4	0	6	0	4	n/a	4_0.gif
225.004	1	2	0	4	0.02	2	0	2_0.gif
226.004	1	1	0	1	0.435	1	1	1_0.gif
227.004	1	4	0	4	0.492	4	1	4_0.gif
228.004	1	1	0	1	0.398	1	1	1_0.gif
229.004	1	4	0	4	0.415	4	1	4_0.gif
230.004	1	2	0	2	0.404	2	1	2_0.gif
231.004	1	3	0	3	0.377	3	1	3_0.gif
232.004	1	1	0	1	0.434	1	1	1_0.gif
233.004	1	2	0	2	0.557	2	1	2_0.gif
234.004	1	1	0	1	0.519	1	1	1_0.gif
235.004	1	4	0	4	0.651	4	1	4_0.gif
236.004	1	3	0	3	0.503	3	1	3_0.gif
237.004	1	1	0	1	0.466	1	1	1_0.gif
238.004	1	2	0	2	0.355	2	1	2_0.gif
239.004	1	1	0	1	0.392	1	1	1_0.gif
240.005	1	3	2	6	0	2	n/a	3_2.gif
241.005	1	2	2	6	0	1	n/a	2_2.gif
242.005	1	3	2	3	0.394	3	1	3_2.gif
243.005	1	4	2	2	0.305	2	1	4_2.gif
244.005	1	1	2	3	0.192	3	1	1_2.gif
245.005	1	2	2	4	0.142	4	1	2_2.gif
246.005	1	4	2	1	0.003	1	1	4_2.gif
247.005	1	3	2	2	0.003	2	1	3_2.gif
248.005	1	2	2	4	0.003	4	1	2_2.gif
249.005	1	4	2	3	0.003	3	1	4_2.gif
250.005	1	2	2	2	0.003	2	1	2_2.gif
251.005	1	3	2	2	0.745	4	0	3_2.gif
252.005	1	2	2	3	0.772	2	0	2_2.gif
253.005	1	4	2	2	0.659	3	0	4_2.gif
254.005	1	3	2	4	0.731	2	0	3_2.gif
255.005	1	4	2	3	0.704	4	0	4_2.gif
