onset	duration	nback_display	trial_type	response	response_time	correct_response	correct	stim_file
0	1	2	0	2	0.776	2	1	2_0.gif
1	1	4	0	2	0.003	4	0	4_0.gif
2	1	3	0	3	0.446	3	1	3_0.gif
3	1	2	0	2	0.413	2	1	2_0.gif
4	1	1	0	1	0.603	1	1	1_0.gif
5	1	2	0	2	0.43	2	1	2_0.gif
6	1	3	0	3	0.382	3	1	3_0.gif
7	1	2	0	2	0.35	2	1	2_0.gif
8	1	3	0	3	0.447	3	1	3_0.gif
9	1	4	0	4	0.475	4	1	4_0.gif
10	1	2	0	2	0.417	2	1	2_0.gif
11	1	3	0	3	0.479	3	1	3_0.gif
12	1	4	0	4	0.454	4	1	4_0.gif
13	1	2	0	2	0.477	2	1	2_0.gif
14	1	4	0	4	0.41	4	1	4_0.gif
15	1	1	0	1	0.386	1	1	1_0.gif
16	1	4	2	6	0	4	n/a	4_2.gif
17	1	1	2	6	0	1	n/a	1_2.gif
18	1	3	2	4	0.404	4	1	3_2.gif
19	1	2	2	1	0.337	1	1	2_2.gif
20	1	1	2	3	0.496	3	1	1_2.gif
21	1	3	2	2	0.144	2	1	3_2.gif
22	1	2	2	3	0.347	1	0	2_2.gif
23	1	4	2	6	0	3	n/a	4_2.gif
24	1	2	2	6	0	2	n/a	2_2.gif
25	1	4	2	2	0.057	4	0	4_2.gif
26	1	2	2	4	0.266	2	0	2_2.gif
27	1	1	2	2	0.524	4	0	1_2.gif
28	1	4	2	6	0	2	n/a	4_2.gif
29	1	1	2	4	0.932	1	0	1_2.gif
30	1	2	2	4	0.003	4	1	2_2.gif
31	1	4	2	6	0	1	n/a	4_2.gif
32	1	2	0	2	0.754	2	1	2_0.gif
33	1	3	0	2	0.003	3	0	3_0.gif
34	1	1	0	1	0.388	1	1	1_0.gif
35	1	4	0	4	0.263	4	1	4_0.gif
36	1	1	0	1	0.52	1	1	1_0.gif
37	1	3	0	3	0.416	3	1	3_0.gif
38	1	2	0	2	0.348	2	1	2_0.gif
39	1	3	0	3	0.433	3	1	3_0.gif
40	1	2	0	2	0.437	2	1	2_0.gif
41	1	1	0	1	0.37	1	1	1_0.gif
42	1	2	0	2	0.444	2	1	2_0.gif
43	1	4	0	4	0.408	4	1	4_0.gif
44	1	1	0	1	0.478	1	1	1_0.gif
45	1	2	0	2	0.373	2	1	2_0.gif
46	1	3	0	3	0.407	3	1	3_0.gif
47	1	1	0	1	0.44	1	1	1_0.gif
48	1	4	2	6	0	3	n/a	4_2.gif
49	1	1	2	6	0	1	n/a	1_2.gif
50	1	3	2	4	0.445	4	1	3_2.gif
51	1	2	2	1	0.875	1	1	2_2.gif
52	1	3	2	1	0.004	3	0	3_2.gif
53	1	2	2	3	0.004	2	0	2_2.gif
54	1	3	2	2	0.004	3	0	3_2.gif
55	1	1	2	3	0.004	2	0	1_2.gif
56	1	3	2	2	0.021	3	0	3_2.gif
57	1	1	2	3	0.004	1	0	1_2.gif
58	1	4	2	1	0.04	3	0	4_2.gif
59	1	1	2	3	0.004	1	0	1_2.gif
60	1	3	2	1	0.39	4	0	3_2.gif
61	1	2	2	6	0	1	n/a	2_2.gif
62	1	4	2	1	0.856	3	0	4_2.gif
63	1	2	2	1	0.004	2	0	2_2.gif
64.001	1	3	0	3	0.227	3	1	3_0.gif
65.001	1	2	0	2	0.413	2	1	2_0.gif
66.001	1	4	0	4	0.455	4	1	4_0.gif
67.001	1	2	0	2	0.391	2	1	2_0.gif
68.001	1	1	0	1	0.425	1	1	1_0.gif
69.001	1	4	0	4	0.353	4	1	4_0.gif
70.001	1	1	0	1	0.347	1	1	1_0.gif
71.001	1	2	0	2	0.353	2	1	2_0.gif
72.001	1	3	0	3	0.389	3	1	3_0.gif
73.001	1	1	0	1	0.671	1	1	1_0.gif
74.001	1	4	0	4	0.686	4	1	4_0.gif
75.001	1	1	0	1	0.483	1	1	1_0.gif
76.001	1	3	0	3	0.409	3	1	3_0.gif
77.001	1	2	0	2	0.371	2	1	2_0.gif
78.001	1	4	0	4	0.48	4	1	4_0.gif
79.001	1	1	0	1	0.34	1	1	1_0.gif
80.001	1	3	2	6	0	4	n/a	3_2.gif
81.001	1	1	2	6	0	1	n/a	1_2.gif
82.001	1	4	2	3	0.654	3	1	4_2.gif
83.001	1	1	2	1	0.477	1	1	1_2.gif
84.001	1	3	2	4	0.224	4	1	3_2.gif
85.001	1	4	2	1	0.209	1	1	4_2.gif
86.001	1	3	2	3	0.003	3	1	3_2.gif
87.001	1	4	2	4	0.003	4	1	4_2.gif
88.001	1	2	2	6	0	3	n/a	2_2.gif
89.001	1	3	2	6	0	4	n/a	3_2.gif
90.001	1	2	2	6	0	2	n/a	2_2.gif
91.001	1	3	2	3	0.269	3	1	3_2.gif
92.001	1	4	2	6	0	2	n/a	4_2.gif
93.001	1	3	2	6	0	3	n/a	3_2.gif
94.001	1	1	2	6	0	4	n/a	1_2.gif
95.001	1	3	2	6	0	3	n/a	3_2.gif
96.001	1	2	0	2	0.672	2	1	2_0.gif
97.001	1	1	0	1	0.342	1	1	1_0.gif
98.001	1	3	0	3	0.354	3	1	3_0.gif
99.001	1	4	0	4	0.473	4	1	4_0.gif
100.001	1	1	0	1	0.42	1	1	1_0.gif
101.001	1	3	0	3	0.434	3	1	3_0.gif
102.001	1	4	0	4	0.423	4	1	4_0.gif
103.001	1	1	0	1	0.369	1	1	1_0.gif
104.001	1	2	0	2	0.39	2	1	2_0.gif
105.001	1	4	0	4	0.359	4	1	4_0.gif
106.001	1	2	0	2	0.372	2	1	2_0.gif
107.001	1	1	0	1	0.336	1	1	1_0.gif
108.001	1	3	0	3	0.357	3	1	3_0.gif
109.001	1	2	0	2	0.342	2	1	2_0.gif
110.001	1	4	0	4	0.427	4	1	4_0.gif
111.001	1	2	0	2	0.437	2	1	2_0.gif
112.001	1	3	2	6	0	4	n/a	3_2.gif
113.001	1	1	2	6	0	2	n/a	1_2.gif
114.001	1	3	2	6	0	3	n/a	3_2.gif
115.001	1	4	2	3	0.083	1	0	4_2.gif
116.001	1	3	2	1	0.004	3	0	3_2.gif
117.001	1	4	2	3	0.004	4	0	4_2.gif
118.001	1	1	2	4	0.004	3	0	1_2.gif
119.001	1	4	2	3	0.004	4	0	4_2.gif
120.001	1	1	2	4	0.004	1	0	1_2.gif
121.001	1	2	2	4	0.594	4	1	2_2.gif
122.001	1	1	2	1	0.609	1	1	1_2.gif
123.001	1	2	2	2	0.574	2	1	2_2.gif
124.001	1	3	2	1	0.639	1	1	3_2.gif
125.001	1	1	2	3	0.627	2	0	1_2.gif
126.001	1	2	2	6	0	3	n/a	2_2.gif
127.001	1	4	2	1	0.889	1	1	4_2.gif
128.002	1	3	0	1	0.003	3	0	3_0.gif
129.002	1	2	0	3	0.003	2	0	2_0.gif
130.002	1	3	0	3	0.494	3	1	3_0.gif
131.002	1	2	0	2	0.343	2	1	2_0.gif
132.002	1	3	0	3	0.267	3	1	3_0.gif
133.002	1	2	0	2	0.328	2	1	2_0.gif
134.002	1	1	0	1	0.343	1	1	1_0.gif
135.002	1	4	0	4	0.348	4	1	4_0.gif
136.002	1	2	0	2	0.462	2	1	2_0.gif
137.002	1	4	0	4	0.421	4	1	4_0.gif
138.002	1	3	0	3	0.42	3	1	3_0.gif
139.002	1	4	0	4	0.5	4	1	4_0.gif
140.002	1	2	0	2	0.372	2	1	2_0.gif
141.002	1	4	0	4	0.44	4	1	4_0.gif
142.002	1	3	0	3	0.468	3	1	3_0.gif
143.002	1	4	0	4	0.468	4	1	4_0.gif
144.002	1	2	2	6	0	3	n/a	2_2.gif
145.002	1	1	2	6	0	4	n/a	1_2.gif
146.002	1	4	2	2	0.221	2	1	4_2.gif
147.002	1	1	2	1	0.396	1	1	1_2.gif
148.002	1	4	2	4	0.711	4	1	4_2.gif
149.002	1	1	2	4	0.003	1	0	1_2.gif
150.002	1	2	2	4	0.682	4	1	2_2.gif
151.002	1	4	2	1	0.618	1	1	4_2.gif
152.002	1	3	2	2	0.707	2	1	3_2.gif
153.002	1	1	2	4	0.827	4	1	1_2.gif
154.002	1	2	2	4	0.003	3	0	2_2.gif
155.002	1	3	2	1	0.49	1	1	3_2.gif
156.002	1	1	2	2	0.273	2	1	1_2.gif
157.002	1	3	2	3	0.082	3	1	3_2.gif
158.002	1	1	2	1	0.332	1	1	1_2.gif
159.002	1	3	2	3	0.392	3	1	3_2.gif
160.002	1	4	0	4	0.672	4	1	4_0.gif
161.002	1	1	0	1	0.449	1	1	1_0.gif
162.002	1	4	0	4	0.363	4	1	4_0.gif
163.002	1	1	0	1	0.425	1	1	1_0.gif
164.002	1	3	0	3	0.394	3	1	3_0.gif
165.002	1	2	0	2	0.335	2	1	2_0.gif
166.002	1	4	0	4	0.392	4	1	4_0.gif
167.002	1	2	0	2	0.365	2	1	2_0.gif
168.002	1	3	0	3	0.471	3	1	3_0.gif
169.002	1	1	0	1	0.471	1	1	1_0.gif
170.002	1	3	0	3	0.468	3	1	3_0.gif
171.002	1	1	0	1	0.379	1	1	1_0.gif
172.002	1	2	0	2	0.422	2	1	2_0.gif
173.002	1	3	0	3	0.525	3	1	3_0.gif
174.002	1	2	0	2	0.489	2	1	2_0.gif
175.002	1	1	0	1	0.424	1	1	1_0.gif
176.002	1	2	2	6	0	2	n/a	2_2.gif
177.002	1	3	2	6	0	1	n/a	3_2.gif
178.002	1	4	2	2	0.901	2	1	4_2.gif
179.002	1	1	2	2	0.004	3	0	1_2.gif
180.002	1	3	2	3	0.004	4	0	3_2.gif
181.002	1	1	2	4	0.004	1	0	1_2.gif
182.002	1	4	2	1	0.004	3	0	4_2.gif
183.002	1	1	2	3	0.004	1	0	1_2.gif
184.002	1	3	2	1	0.004	4	0	3_2.gif
185.002	1	1	2	4	0.004	1	0	1_2.gif
186.002	1	3	2	3	0.739	3	1	3_2.gif
187.002	1	1	2	1	0.943	1	1	1_2.gif
188.002	1	3	2	1	0.004	3	0	3_2.gif
189.002	1	2	2	3	0.026	1	0	2_2.gif
190.002	1	4	2	1	0.004	3	0	4_2.gif
191.002	1	3	2	3	0.004	2	0	3_2.gif
192.003	1	2	0	2	0.003	2	1	2_0.gif
193.003	1	1	0	2	0.053	1	0	1_0.gif
194.003	1	2	0	1	0.003	2	0	2_0.gif
195.003	1	3	0	2	0.003	3	0	3_0.gif
196.003	1	2	0	2	0.431	2	1	2_0.gif
197.003	1	3	0	3	0.421	3	1	3_0.gif
198.003	1	4	0	4	0.414	4	1	4_0.gif
199.003	1	2	0	2	0.433	2	1	2_0.gif
200.003	1	3	0	3	0.467	3	1	3_0.gif
201.003	1	4	0	4	0.453	4	1	4_0.gif
202.003	1	2	0	2	0.396	2	1	2_0.gif
203.003	1	4	0	4	0.411	4	1	4_0.gif
204.003	1	1	0	1	0.373	1	1	1_0.gif
205.003	1	4	0	4	0.496	4	1	4_0.gif
206.003	1	1	0	1	0.412	1	1	1_0.gif
207.003	1	3	0	3	0.401	3	1	3_0.gif
208.003	1	2	2	6	0	1	n/a	2_2.gif
209.003	1	1	2	6	0	3	n/a	1_2.gif
210.003	1	3	2	2	0.915	2	1	3_2.gif
211.003	1	2	2	2	0.003	1	0	2_2.gif
212.003	1	4	2	3	0.702	3	1	4_2.gif
213.003	1	2	2	2	0.608	2	1	2_2.gif
214.003	1	4	2	4	0.336	4	1	4_2.gif
215.003	1	2	2	2	0.167	2	1	2_2.gif
216.003	1	1	2	4	0.162	4	1	1_2.gif
217.003	1	4	2	2	0.003	2	1	4_2.gif
218.003	1	1	2	1	0.003	1	1	1_2.gif
219.003	1	2	2	1	0.495	4	0	2_2.gif
220.003	1	4	2	2	0.467	1	0	4_2.gif
221.003	1	2	2	4	0.377	2	0	2_2.gif
222.003	1	3	2	2	0.2	4	0	3_2.gif
223.003	1	1	2	4	0.202	2	0	1_2.gif
224.003	1	4	0	3	0.099	4	0	4_0.gif
225.003	1	1	0	4	0.003	1	0	1_0.gif
226.003	1	3	0	1	0.003	3	0	3_0.gif
227.003	1	2	0	2	0.41	2	1	2_0.gif
228.003	1	3	0	3	0.426	3	1	3_0.gif
229.003	1	2	0	2	0.487	2	1	2_0.gif
230.003	1	1	0	1	0.491	1	1	1_0.gif
231.003	1	2	0	2	0.467	2	1	2_0.gif
232.003	1	4	0	4	0.524	4	1	4_0.gif
233.003	1	1	0	1	0.418	1	1	1_0.gif
234.003	1	2	0	2	0.436	2	1	2_0.gif
235.003	1	3	0	3	0.484	3	1	3_0.gif
236.003	1	1	0	1	0.303	1	1	1_0.gif
237.003	1	4	0	4	0.451	4	1	4_0.gif
238.003	1	1	0	1	0.45	1	1	1_0.gif
239.003	1	3	0	3	0.468	3	1	3_0.gif
240.003	1	2	2	6	0	1	n/a	2_2.gif
241.003	1	3	2	6	0	3	n/a	3_2.gif
242.003	1	2	2	6	0	2	n/a	2_2.gif
243.003	1	3	2	2	0.133	3	0	3_2.gif
244.003	1	1	2	2	0.638	2	1	1_2.gif
245.003	1	3	2	3	0.451	3	1	3_2.gif
246.003	1	1	2	2	0.175	1	0	1_2.gif
247.003	1	4	2	1	0.004	3	0	4_2.gif
248.003	1	1	2	3	0.004	1	0	1_2.gif
249.003	1	3	2	4	0.818	4	1	3_2.gif
250.003	1	2	2	4	0.004	1	0	2_2.gif
251.003	1	4	2	3	0.542	3	1	4_2.gif
252.003	1	2	2	2	0.342	2	1	2_2.gif
253.003	1	3	2	4	0.238	4	1	3_2.gif
254.003	1	2	2	2	0.099	2	1	2_2.gif
255.003	1	4	2	3	0.004	3	1	4_2.gif
