onset	duration	nback_display	trial_type	response	response_time	correct_response	correct	stim_file
0	1	2	0	2	0.675	2	1	2_0.gif
1	1	3	0	3	0.57	3	1	3_0.gif
2	1	2	0	2	0.394	2	1	2_0.gif
3	1	4	0	4	0.541	4	1	4_0.gif
4	1	2	0	2	0.532	2	1	2_0.gif
5	1	3	0	3	0.391	3	1	3_0.gif
6	1	1	0	1	0.389	1	1	1_0.gif
7	1	2	0	2	0.28	2	1	2_0.gif
8	1	3	0	3	0.451	3	1	3_0.gif
9	1	1	0	1	0.518	1	1	1_0.gif
10	1	3	0	3	0.648	3	1	3_0.gif
11	1	4	0	4	0.511	4	1	4_0.gif
12	1	1	0	1	0.397	1	1	1_0.gif
13	1	4	0	4	0.441	4	1	4_0.gif
14	1	1	0	1	0.439	1	1	1_0.gif
15	1	4	0	4	0.448	4	1	4_0.gif
16.001	1	3	2	6	0	1	n/a	3_2.gif
17.001	1	1	2	6	0	4	n/a	1_2.gif
18.001	1	4	2	3	0.25	3	1	4_2.gif
19.001	1	2	2	1	0.206	1	1	2_2.gif
20.001	1	3	2	4	0.2	4	1	3_2.gif
21.001	1	1	2	2	0.161	2	1	1_2.gif
22.001	1	3	2	3	0.233	3	1	3_2.gif
23.001	1	4	2	1	0.141	1	1	4_2.gif
24.001	1	3	2	3	0.13	3	1	3_2.gif
25.001	1	4	2	4	0.136	4	1	4_2.gif
26.001	1	1	2	3	0.195	3	1	1_2.gif
27.001	1	2	2	4	0.45	4	1	2_2.gif
28.001	1	3	2	1	0.206	1	1	3_2.gif
29.001	1	4	2	2	0.14	2	1	4_2.gif
30.001	1	1	2	3	0.114	3	1	1_2.gif
31.001	1	3	2	4	0.113	4	1	3_2.gif
32.001	1	4	0	1	0.096	4	0	4_0.gif
33.001	1	2	0	2	0.476	2	1	2_0.gif
34.001	1	3	0	3	0.269	3	1	3_0.gif
35.001	1	1	0	1	0.385	1	1	1_0.gif
36.001	1	4	0	4	0.265	4	1	4_0.gif
37.001	1	3	0	3	0.412	3	1	3_0.gif
38.001	1	2	0	2	0.303	2	1	2_0.gif
39.001	1	1	0	1	0.308	1	1	1_0.gif
40.001	1	2	0	2	0.467	2	1	2_0.gif
41.001	1	1	0	1	0.455	1	1	1_0.gif
42.001	1	2	0	2	0.39	2	1	2_0.gif
43.001	1	4	0	4	0.358	4	1	4_0.gif
44.001	1	1	0	1	0.36	1	1	1_0.gif
45.001	1	4	0	4	0.502	4	1	4_0.gif
46.001	1	3	0	3	0.512	3	1	3_0.gif
47.001	1	2	0	2	0.497	2	1	2_0.gif
48.001	1	4	2	6	0	3	n/a	4_2.gif
49.001	1	1	2	6	0	2	n/a	1_2.gif
50.001	1	4	2	4	0.144	4	1	4_2.gif
51.001	1	3	2	1	0.141	1	1	3_2.gif
52.001	1	2	2	4	0.238	4	1	2_2.gif
53.001	1	4	2	3	0.275	3	1	4_2.gif
54.001	1	2	2	2	0.266	2	1	2_2.gif
55.001	1	3	2	4	0.246	4	1	3_2.gif
56.001	1	4	2	2	0.22	2	1	4_2.gif
57.001	1	2	2	3	0.211	3	1	2_2.gif
58.001	1	3	2	4	0.202	4	1	3_2.gif
59.001	1	2	2	2	0.16	2	1	2_2.gif
60.001	1	1	2	3	0.214	3	1	1_2.gif
61.001	1	3	2	1	0.245	2	0	3_2.gif
62.001	1	4	2	3	0.272	1	0	4_2.gif
63.001	1	3	2	6	0	3	n/a	3_2.gif
64.002	1	2	0	6	0	2	n/a	2_0.gif
65.002	1	1	0	2	0.153	1	0	1_0.gif
66.002	1	2	0	2	0.394	2	1	2_0.gif
67.002	1	4	0	4	0.423	4	1	4_0.gif
68.002	1	2	0	2	0.429	2	1	2_0.gif
69.002	1	3	0	3	0.388	3	1	3_0.gif
70.002	1	2	0	2	0.442	2	1	2_0.gif
71.002	1	3	0	3	0.573	3	1	3_0.gif
72.002	1	2	0	2	0.366	2	1	2_0.gif
73.002	1	1	0	1	0.373	1	1	1_0.gif
74.002	1	4	0	4	0.316	4	1	4_0.gif
75.002	1	1	0	1	0.269	1	1	1_0.gif
76.002	1	3	0	3	0.444	3	1	3_0.gif
77.002	1	1	0	1	0.408	1	1	1_0.gif
78.003	1	4	0	4	0.637	4	1	4_0.gif
79.003	1	3	0	3	0.903	3	1	3_0.gif
80.003	1	2	2	3	0.007	4	0	2_2.gif
81.003	1	4	2	6	0	3	n/a	4_2.gif
82.003	1	1	2	2	0.202	2	1	1_2.gif
83.003	1	4	2	4	0.085	4	1	4_2.gif
84.003	1	1	2	1	0.175	1	1	1_2.gif
85.003	1	3	2	4	0.203	4	1	3_2.gif
86.003	1	4	2	1	0.194	1	1	4_2.gif
87.003	1	2	2	3	0.189	3	1	2_2.gif
88.003	1	4	2	4	0.213	4	1	4_2.gif
89.003	1	2	2	2	0.234	2	1	2_2.gif
90.003	1	3	2	4	0.305	4	1	3_2.gif
91.003	1	1	2	2	0.288	2	1	1_2.gif
92.003	1	2	2	3	0.215	3	1	2_2.gif
93.003	1	1	2	1	0.196	1	1	1_2.gif
94.003	1	4	2	6	0	2	n/a	4_2.gif
95.003	1	2	2	1	0.39	1	1	2_2.gif
96.004	1	4	0	4	0.271	4	1	4_0.gif
97.004	1	1	0	1	0.405	1	1	1_0.gif
98.004	1	3	0	3	0.384	3	1	3_0.gif
99.004	1	2	0	2	0.382	2	1	2_0.gif
100.004	1	3	0	3	0.454	3	1	3_0.gif
101.004	1	1	0	1	0.324	1	1	1_0.gif
102.004	1	4	0	4	0.309	4	1	4_0.gif
103.004	1	3	0	3	0.412	3	1	3_0.gif
104.004	1	4	0	4	0.531	4	1	4_0.gif
105.004	1	2	0	2	0.395	2	1	2_0.gif
106.004	1	4	0	6	0	4	n/a	4_0.gif
107.004	1	1	0	1	0.379	1	1	1_0.gif
108.004	1	2	0	2	0.41	2	1	2_0.gif
109.004	1	4	0	4	0.352	4	1	4_0.gif
110.004	1	1	0	1	0.387	1	1	1_0.gif
111.004	1	4	0	4	0.343	4	1	4_0.gif
112.004	1	2	2	6	0	1	n/a	2_2.gif
113.004	1	3	2	6	0	4	n/a	3_2.gif
114.004	1	1	2	2	0.159	2	1	1_2.gif
115.004	1	3	2	3	0.092	3	1	3_2.gif
116.004	1	4	2	1	0.109	1	1	4_2.gif
117.004	1	3	2	3	0.087	3	1	3_2.gif
118.004	1	1	2	4	0.035	4	1	1_2.gif
119.004	1	3	2	3	0.091	3	1	3_2.gif
120.004	1	1	2	1	0.12	1	1	1_2.gif
121.004	1	4	2	3	0.194	3	1	4_2.gif
122.004	1	1	2	1	0.215	1	1	1_2.gif
123.004	1	3	2	4	0.241	4	1	3_2.gif
124.004	1	1	2	1	0.186	1	1	1_2.gif
125.004	1	4	2	3	0.185	3	1	4_2.gif
126.004	1	1	2	1	0.101	1	1	1_2.gif
127.004	1	2	2	4	0.163	4	1	2_2.gif
128.004	1	4	0	1	0.181	4	0	4_0.gif
129.004	1	1	0	1	0.393	1	1	1_0.gif
130.004	1	2	0	2	0.361	2	1	2_0.gif
131.004	1	3	0	3	0.334	3	1	3_0.gif
132.004	1	2	0	2	0.39	2	1	2_0.gif
133.004	1	4	0	4	0.311	4	1	4_0.gif
134.004	1	1	0	1	0.359	1	1	1_0.gif
135.004	1	4	0	4	0.401	4	1	4_0.gif
136.004	1	2	0	2	0.367	2	1	2_0.gif
137.004	1	4	0	4	0.387	4	1	4_0.gif
138.004	1	1	0	1	0.336	1	1	1_0.gif
139.004	1	3	0	3	0.432	3	1	3_0.gif
140.004	1	2	0	2	0.326	2	1	2_0.gif
141.004	1	4	0	4	0.408	4	1	4_0.gif
142.004	1	3	0	3	0.946	3	1	3_0.gif
143.004	1	1	0	3	0.007	1	0	1_0.gif
144.005	1	4	2	6	0	3	n/a	4_2.gif
145.005	1	2	2	6	0	1	n/a	2_2.gif
146.005	1	3	2	4	0.129	4	1	3_2.gif
147.005	1	1	2	2	0.144	2	1	1_2.gif
148.005	1	4	2	3	0.106	3	1	4_2.gif
149.005	1	2	2	1	0.029	1	1	2_2.gif
150.005	1	4	2	4	0.035	4	1	4_2.gif
151.005	1	2	2	2	0.007	2	1	2_2.gif
152.005	1	3	2	4	0.153	4	1	3_2.gif
153.005	1	1	2	2	0.158	2	1	1_2.gif
154.005	1	2	2	3	0.037	3	1	2_2.gif
155.005	1	3	2	1	0.109	1	1	3_2.gif
156.005	1	1	2	3	0.127	2	0	1_2.gif
157.005	1	3	2	3	0.352	3	1	3_2.gif
158.005	1	1	2	6	0	1	n/a	1_2.gif
159.005	1	3	2	6	0	3	n/a	3_2.gif
160.005	1	4	0	1	0.477	4	0	4_0.gif
161.005	1	1	0	1	0.424	1	1	1_0.gif
162.005	1	4	0	4	0.368	4	1	4_0.gif
163.005	1	3	0	3	0.411	3	1	3_0.gif
164.005	1	1	0	1	0.317	1	1	1_0.gif
165.005	1	2	0	2	0.41	2	1	2_0.gif
166.005	1	3	0	3	0.263	3	1	3_0.gif
167.005	1	2	0	2	0.432	2	1	2_0.gif
168.005	1	3	0	3	0.416	3	1	3_0.gif
169.005	1	4	0	4	0.48	4	1	4_0.gif
170.005	1	2	0	2	0.326	2	1	2_0.gif
171.005	1	4	0	4	0.487	4	1	4_0.gif
172.005	1	1	0	1	0.34	1	1	1_0.gif
173.005	1	3	0	3	0.447	3	1	3_0.gif
174.005	1	2	0	2	0.419	2	1	2_0.gif
175.005	1	3	0	3	0.335	3	1	3_0.gif
176.005	1	1	2	6	0	2	n/a	1_2.gif
177.005	1	2	2	6	0	3	n/a	2_2.gif
178.005	1	3	2	1	0.03	1	1	3_2.gif
179.005	1	4	2	2	0.141	2	1	4_2.gif
180.005	1	3	2	3	0.143	3	1	3_2.gif
181.005	1	2	2	4	0.101	4	1	2_2.gif
182.005	1	1	2	3	0.111	3	1	1_2.gif
183.005	1	4	2	2	0.086	2	1	4_2.gif
184.005	1	1	2	1	0.03	1	1	1_2.gif
185.005	1	4	2	4	0.16	4	1	4_2.gif
186.005	1	1	2	6	0	1	n/a	1_2.gif
187.005	1	2	2	6	0	4	n/a	2_2.gif
188.005	1	1	2	1	0.05	1	1	1_2.gif
189.005	1	3	2	2	0.044	2	1	3_2.gif
190.005	1	1	2	1	0.065	1	1	1_2.gif
191.005	1	3	2	3	0.114	3	1	3_2.gif
192.005	1	2	0	1	0.148	2	0	2_0.gif
193.006	1	3	0	6	0	3	n/a	3_0.gif
194.006	1	2	0	2	0.283	2	1	2_0.gif
195.006	1	4	0	4	0.421	4	1	4_0.gif
196.006	1	2	0	2	0.393	2	1	2_0.gif
197.006	1	3	0	3	0.325	3	1	3_0.gif
198.006	1	1	0	1	0.373	1	1	1_0.gif
199.006	1	2	0	2	0.385	2	1	2_0.gif
200.006	1	3	0	3	0.347	3	1	3_0.gif
201.006	1	1	0	1	0.37	1	1	1_0.gif
202.006	1	3	0	3	0.382	3	1	3_0.gif
203.006	1	4	0	4	0.475	4	1	4_0.gif
204.006	1	1	0	1	0.356	1	1	1_0.gif
205.006	1	4	0	4	0.388	4	1	4_0.gif
206.006	1	1	0	1	0.352	1	1	1_0.gif
207.006	1	4	0	6	0	4	n/a	4_0.gif
208.006	1	3	2	6	0	1	n/a	3_2.gif
209.006	1	1	2	6	0	4	n/a	1_2.gif
210.006	1	4	2	3	0.186	3	1	4_2.gif
211.006	1	2	2	1	0.135	1	1	2_2.gif
212.006	1	3	2	4	0.194	4	1	3_2.gif
213.006	1	1	2	2	0.22	2	1	1_2.gif
214.006	1	3	2	3	0.195	3	1	3_2.gif
215.006	1	4	2	1	0.217	1	1	4_2.gif
216.006	1	3	2	3	0.358	3	1	3_2.gif
217.006	1	4	2	4	0.057	4	1	4_2.gif
218.006	1	1	2	3	0.185	3	1	1_2.gif
219.006	1	2	2	4	0.146	4	1	2_2.gif
220.006	1	3	2	1	0.169	1	1	3_2.gif
221.006	1	4	2	2	0.175	2	1	4_2.gif
222.006	1	1	2	3	0.196	3	1	1_2.gif
223.006	1	3	2	4	0.125	4	1	3_2.gif
224.006	1	4	0	1	0.12	4	0	4_0.gif
225.006	1	2	0	2	0.384	2	1	2_0.gif
226.006	1	3	0	6	0	3	n/a	3_0.gif
227.006	1	1	0	1	0.344	1	1	1_0.gif
228.006	1	4	0	4	0.311	4	1	4_0.gif
229.006	1	3	0	3	0.4	3	1	3_0.gif
230.006	1	2	0	2	0.337	2	1	2_0.gif
231.006	1	1	0	1	0.316	1	1	1_0.gif
232.006	1	2	0	2	0.395	2	1	2_0.gif
233.006	1	1	0	1	0.422	1	1	1_0.gif
234.006	1	2	0	2	0.359	2	1	2_0.gif
235.007	1	4	0	4	0.462	4	1	4_0.gif
236.007	1	1	0	1	0.413	1	1	1_0.gif
237.007	1	4	0	4	0.428	4	1	4_0.gif
238.007	1	3	0	3	0.444	3	1	3_0.gif
239.007	1	2	0	2	0.349	2	1	2_0.gif
240.007	1	4	2	6	0	3	n/a	4_2.gif
241.007	1	1	2	6	0	2	n/a	1_2.gif
242.007	1	4	2	4	0.259	4	1	4_2.gif
243.007	1	3	2	1	0.165	1	1	3_2.gif
244.007	1	2	2	4	0.161	4	1	2_2.gif
245.007	1	4	2	3	0.127	3	1	4_2.gif
246.007	1	2	2	2	0.072	2	1	2_2.gif
247.007	1	3	2	4	0.18	4	1	3_2.gif
248.007	1	4	2	2	0.148	2	1	4_2.gif
249.007	1	2	2	3	0.096	3	1	2_2.gif
250.007	1	3	2	4	0.136	4	1	3_2.gif
251.007	1	2	2	2	0.108	2	1	2_2.gif
252.007	1	1	2	3	0.081	3	1	1_2.gif
253.007	1	3	2	2	0.159	2	1	3_2.gif
254.007	1	4	2	1	0.058	1	1	4_2.gif
255.007	1	3	2	3	0.122	3	1	3_2.gif
