onset	duration	nback_display	trial_type	response	response_time	correct_response	correct	stim_file
0	1	2	0	2	0.761	2	1	2_0.gif
1	1	1	0	1	0.513	1	1	1_0.gif
2	1	4	0	4	0.984	4	1	4_0.gif
3	1	2	0	4	0.008	2	0	2_0.gif
4	1	1	0	1	0.553	1	1	1_0.gif
5	1	3	0	3	0.417	3	1	3_0.gif
6	1	1	0	1	0.366	1	1	1_0.gif
7	1	2	0	2	0.359	2	1	2_0.gif
8	1	3	0	3	0.405	3	1	3_0.gif
9.001	1	1	0	1	0.413	1	1	1_0.gif
10.001	1	3	0	3	0.468	3	1	3_0.gif
11.001	1	4	0	3	0.012	4	0	4_0.gif
12.001	1	1	0	4	0.133	1	0	1_0.gif
13.001	1	4	0	1	0.008	4	0	4_0.gif
14.001	1	1	0	4	0.009	1	0	1_0.gif
15.001	1	4	0	6	0	4	n/a	4_0.gif
16.001	1	3	2	6	0	1	n/a	3_2.gif
17.001	1	1	2	6	0	4	n/a	1_2.gif
18.002	1	4	2	3	0.234	3	1	4_2.gif
19.002	1	2	2	1	0.31	1	1	2_2.gif
20.002	1	3	2	4	0.364	4	1	3_2.gif
21.002	1	1	2	2	0.327	2	1	1_2.gif
22.002	1	3	2	3	0.196	3	1	3_2.gif
23.002	1	1	2	1	0.184	1	1	1_2.gif
24.002	1	4	2	3	0.055	3	1	4_2.gif
25.002	1	1	2	1	0.073	1	1	1_2.gif
26.002	1	3	2	4	0.085	4	1	3_2.gif
27.002	1	4	2	1	0.008	1	1	4_2.gif
28.002	1	1	2	3	0.008	3	1	1_2.gif
29.002	1	4	2	4	0.009	4	1	4_2.gif
30.002	1	3	2	4	0.567	1	0	3_2.gif
31.002	1	4	2	3	0.457	4	0	4_2.gif
32.002	1	1	0	4	0.295	1	0	1_0.gif
33.002	1	3	0	1	0.009	3	0	3_0.gif
34.002	1	4	0	4	0.421	4	1	4_0.gif
35.002	1	3	0	3	0.341	3	1	3_0.gif
36.002	1	1	0	1	0.544	1	1	1_0.gif
37.002	1	2	0	2	0.317	2	1	2_0.gif
38.002	1	1	0	1	0.452	1	1	1_0.gif
39.002	1	2	0	2	0.421	2	1	2_0.gif
40.002	1	1	0	1	0.335	1	1	1_0.gif
41.002	1	3	0	3	0.304	3	1	3_0.gif
42.002	1	4	0	4	0.685	4	1	4_0.gif
43.002	1	1	0	4	0.01	1	0	1_0.gif
44.002	1	3	0	3	0.363	3	1	3_0.gif
45.002	1	2	0	2	0.842	2	1	2_0.gif
46.002	1	3	0	2	0.008	3	0	3_0.gif
47.002	1	1	0	1	0.469	1	1	1_0.gif
48.003	1	4	2	6	0	3	n/a	4_2.gif
49.003	1	3	2	6	0	1	n/a	3_2.gif
50.003	1	2	2	4	0.22	4	1	2_2.gif
51.003	1	3	2	3	0.196	3	1	3_2.gif
52.003	1	4	2	2	0.119	2	1	4_2.gif
53.003	1	1	2	3	0.008	3	1	1_2.gif
54.003	1	2	2	4	0.008	4	1	2_2.gif
55.003	1	1	2	1	0.008	1	1	1_2.gif
56.003	1	4	2	1	0.921	2	0	4_2.gif
57.003	1	2	2	1	0.008	1	1	2_2.gif
58.003	1	4	2	6	0	4	n/a	4_2.gif
59.003	1	2	2	4	0.319	2	0	2_2.gif
60.003	1	1	2	6	0	4	n/a	1_2.gif
61.003	1	3	2	1	0.368	2	0	3_2.gif
62.003	1	1	2	3	0.786	1	0	1_2.gif
63.003	1	2	2	3	0.008	3	1	2_2.gif
64.004	1	1	0	1	0.667	1	1	1_0.gif
65.004	1	2	0	2	0.404	2	1	2_0.gif
66.004	1	4	0	6	0	4	n/a	4_0.gif
67.005	1	2	0	2	0.637	2	1	2_0.gif
68.005	1	3	0	3	0.328	3	1	3_0.gif
69.005	1	4	0	4	0.641	4	1	4_0.gif
70.005	1	3	0	3	0.521	3	1	3_0.gif
71.005	1	4	0	4	0.522	4	1	4_0.gif
72.005	1	2	0	6	0	2	n/a	2_0.gif
73.005	1	1	0	1	0.758	1	1	1_0.gif
74.005	1	4	0	4	0.798	4	1	4_0.gif
75.005	1	2	0	2	0.53	2	1	2_0.gif
76.005	1	4	0	4	0.774	4	1	4_0.gif
77.005	1	3	0	3	0.485	3	1	3_0.gif
78.005	1	4	0	4	0.639	4	1	4_0.gif
79.005	1	3	0	3	0.36	3	1	3_0.gif
80.005	1	2	2	2	0.442	4	0	2_2.gif
81.005	1	3	2	6	0	3	n/a	3_2.gif
82.005	1	4	2	2	0.214	2	1	4_2.gif
83.005	1	1	2	3	0.184	3	1	1_2.gif
84.005	1	2	2	4	0.353	4	1	2_2.gif
85.005	1	3	2	1	0.228	1	1	3_2.gif
86.005	1	1	2	2	0.182	2	1	1_2.gif
87.005	1	2	2	3	0.094	3	1	2_2.gif
88.005	1	1	2	1	0.078	1	1	1_2.gif
89.005	1	3	2	2	0.049	2	1	3_2.gif
90.005	1	4	2	1	0.21	1	1	4_2.gif
91.005	1	3	2	3	0.162	3	1	3_2.gif
92.005	1	1	2	4	0.071	4	1	1_2.gif
93.005	1	2	2	3	0.009	3	1	2_2.gif
94.005	1	1	2	1	0.009	1	1	1_2.gif
95.005	1	4	2	2	0.009	2	1	4_2.gif
96.006	1	3	0	1	0.008	3	0	3_0.gif
97.006	1	1	0	3	0.008	1	0	1_0.gif
98.006	1	3	0	3	0.398	3	1	3_0.gif
99.006	1	4	0	4	0.544	4	1	4_0.gif
100.006	1	1	0	1	0.361	1	1	1_0.gif
101.006	1	4	0	4	0.53	4	1	4_0.gif
102.006	1	2	0	2	0.457	2	1	2_0.gif
103.006	1	4	0	4	0.564	4	1	4_0.gif
104.006	1	2	0	2	0.437	2	1	2_0.gif
105.006	1	1	0	1	0.312	1	1	1_0.gif
106.006	1	3	0	3	0.3	3	1	3_0.gif
107.006	1	1	0	1	0.423	1	1	1_0.gif
108.006	1	3	0	3	0.335	3	1	3_0.gif
109.006	1	1	0	1	0.414	1	1	1_0.gif
110.006	1	3	0	3	0.242	3	1	3_0.gif
111.006	1	4	0	3	0.352	4	0	4_0.gif
112.007	1	3	2	4	0.008	3	0	3_2.gif
113.007	1	4	2	6	0	4	n/a	4_2.gif
114.007	1	3	2	3	0.441	3	1	3_2.gif
115.007	1	1	2	4	0.405	4	1	1_2.gif
116.007	1	4	2	3	0.253	3	1	4_2.gif
117.007	1	2	2	1	0.224	1	1	2_2.gif
118.007	1	1	2	4	0.048	4	1	1_2.gif
119.007	1	2	2	2	0.215	2	1	2_2.gif
120.007	1	3	2	1	0.184	1	1	3_2.gif
121.007	1	4	2	2	0.187	2	1	4_2.gif
122.007	1	1	2	3	0.182	3	1	1_2.gif
123.007	1	4	2	4	0.126	4	1	4_2.gif
124.007	1	3	2	1	0.008	1	1	3_2.gif
125.007	1	1	2	4	0.009	4	1	1_2.gif
126.007	1	2	2	3	0.258	3	1	2_2.gif
127.015	1	3	2	1	0.063	1	1	3_2.gif
128.016	1	2	0	2	0.181	2	1	2_0.gif
129.016	1	4	0	4	0.489	4	1	4_0.gif
130.016	1	1	0	4	0.009	1	0	1_0.gif
131.016	1	4	0	4	0.48	4	1	4_0.gif
132.016	1	2	0	4	0.009	2	0	2_0.gif
133.016	1	3	0	3	0.275	3	1	3_0.gif
134.016	1	4	0	3	0.01	4	0	4_0.gif
135.016	1	1	0	4	0.009	1	0	1_0.gif
136.016	1	3	0	1	0.008	3	0	3_0.gif
137.016	1	2	0	2	0.374	2	1	2_0.gif
138.016	1	4	0	4	0.481	4	1	4_0.gif
139.016	1	3	0	3	0.397	3	1	3_0.gif
140.016	1	1	0	1	0.445	1	1	1_0.gif
141.016	1	3	0	3	0.421	3	1	3_0.gif
142.016	1	2	0	2	0.401	2	1	2_0.gif
143.016	1	1	0	1	0.313	1	1	1_0.gif
144.017	1	4	2	6	0	2	n/a	4_2.gif
145.017	1	3	2	6	0	1	n/a	3_2.gif
146.017	1	1	2	4	0.198	4	1	1_2.gif
147.017	1	4	2	3	0.104	3	1	4_2.gif
148.017	1	3	2	1	0.018	1	1	3_2.gif
149.017	1	4	2	4	0.009	4	1	4_2.gif
150.017	1	1	2	4	0.661	3	0	1_2.gif
151.017	1	4	2	1	0.548	4	0	4_2.gif
152.017	1	2	2	4	0.323	1	0	2_2.gif
153.017	1	3	2	2	0.239	4	0	3_2.gif
154.017	1	1	2	3	0.21	2	0	1_2.gif
155.017	1	2	2	1	0.351	3	0	2_2.gif
156.017	1	3	2	2	0.195	1	0	3_2.gif
157.017	1	1	2	3	0.481	2	0	1_2.gif
158.017	1	2	2	1	0.254	3	0	2_2.gif
159.017	1	1	2	2	0.216	1	0	1_2.gif
160.018	1	3	0	1	0.289	3	0	3_0.gif
161.018	1	4	0	3	0.009	4	0	4_0.gif
162.018	1	1	0	4	0.009	1	0	1_0.gif
163.018	1	4	0	4	0.499	4	1	4_0.gif
164.018	1	3	0	3	0.37	3	1	3_0.gif
165.018	1	4	0	4	0.844	4	1	4_0.gif
166.018	1	2	0	2	0.711	2	1	2_0.gif
167.018	1	1	0	1	0.574	1	1	1_0.gif
168.018	1	2	0	2	0.487	2	1	2_0.gif
169.018	1	1	0	1	0.434	1	1	1_0.gif
170.018	1	3	0	3	0.318	3	1	3_0.gif
171.018	1	4	0	2	0.276	4	0	4_0.gif
172.018	1	2	0	4	0.009	2	0	2_0.gif
173.018	1	4	0	4	0.554	4	1	4_0.gif
174.018	1	1	0	1	0.326	1	1	1_0.gif
175.018	1	4	0	4	0.634	4	1	4_0.gif
176.019	1	3	2	3	0.413	1	0	3_2.gif
177.019	1	1	2	6	0	4	n/a	1_2.gif
178.019	1	2	2	3	0.213	3	1	2_2.gif
179.019	1	1	2	1	0.166	1	1	1_2.gif
180.019	1	2	2	2	0.164	2	1	2_2.gif
181.019	1	3	2	1	0.07	1	1	3_2.gif
182.019	1	4	2	2	0.028	2	1	4_2.gif
183.019	1	2	2	3	0.009	3	1	2_2.gif
184.019	1	4	2	4	0.008	4	1	4_2.gif
185.019	1	3	2	2	0.009	2	1	3_2.gif
186.019	1	1	2	4	0.008	4	1	1_2.gif
187.019	1	2	2	1	0.752	3	0	2_2.gif
188.019	1	4	2	2	0.493	1	0	4_2.gif
189.019	1	2	2	4	0.385	2	0	2_2.gif
190.019	1	1	2	2	0.287	4	0	1_2.gif
191.019	1	3	2	1	0.246	2	0	3_2.gif
192.019	1	2	0	3	0.095	2	0	2_0.gif
193.019	1	1	0	2	0.009	1	0	1_0.gif
194.019	1	4	0	4	0.388	4	1	4_0.gif
195.019	1	2	0	2	0.417	2	1	2_0.gif
196.019	1	1	0	1	0.321	1	1	1_0.gif
197.019	1	3	0	3	0.274	3	1	3_0.gif
198.019	1	1	0	1	0.429	1	1	1_0.gif
199.019	1	2	0	2	0.34	2	1	2_0.gif
200.019	1	3	0	3	0.349	3	1	3_0.gif
201.019	1	1	0	1	0.307	1	1	1_0.gif
202.019	1	3	0	3	0.355	3	1	3_0.gif
203.019	1	4	0	4	0.65	4	1	4_0.gif
204.019	1	1	0	4	0.009	1	0	1_0.gif
205.019	1	4	0	4	0.587	4	1	4_0.gif
206.019	1	1	0	4	0.008	1	0	1_0.gif
207.019	1	4	0	1	0.009	4	0	4_0.gif
208.02	1	3	2	4	0.009	1	0	3_2.gif
209.02	1	1	2	3	0.009	4	0	1_2.gif
210.02	1	4	2	3	0.845	3	1	4_2.gif
211.02	1	2	2	3	0.009	1	0	2_2.gif
212.02	1	3	2	4	0.548	4	1	3_2.gif
213.02	1	1	2	2	0.367	2	1	1_2.gif
214.02	1	3	2	3	0.303	3	1	3_2.gif
215.02	1	1	2	1	0.148	1	1	1_2.gif
216.02	1	4	2	3	0.009	3	1	4_2.gif
217.02	1	1	2	4	0.008	1	0	1_2.gif
218.02	1	3	2	1	0.009	4	0	3_2.gif
219.02	1	4	2	3	0.009	1	0	4_2.gif
220.02	1	1	2	4	0.478	3	0	1_2.gif
221.02	1	4	2	1	0.67	4	0	4_2.gif
222.02	1	3	2	1	0.009	1	1	3_2.gif
223.02	1	4	2	4	0.009	4	1	4_2.gif
224.021	1	1	0	1	0.847	1	1	1_0.gif
225.021	1	3	0	1	0.009	3	0	3_0.gif
226.021	1	4	0	4	0.66	4	1	4_0.gif
227.021	1	3	0	4	0.009	3	0	3_0.gif
228.021	1	1	0	3	0.009	1	0	1_0.gif
229.021	1	2	0	2	0.442	2	1	2_0.gif
230.021	1	1	0	1	0.48	1	1	1_0.gif
231.021	1	2	0	2	0.374	2	1	2_0.gif
232.021	1	1	0	1	0.439	1	1	1_0.gif
233.021	1	3	0	3	0.417	3	1	3_0.gif
234.021	1	4	0	4	0.359	4	1	4_0.gif
235.021	1	1	0	1	0.442	1	1	1_0.gif
236.021	1	3	0	3	0.507	3	1	3_0.gif
237.021	1	2	0	2	0.498	2	1	2_0.gif
238.021	1	3	0	4	0.445	3	0	3_0.gif
239.021	1	1	0	4	0.32	1	0	1_0.gif
240.022	1	4	2	1	0.126	3	0	4_2.gif
241.022	1	3	2	6	0	1	n/a	3_2.gif
242.022	1	2	2	4	0.274	4	1	2_2.gif
243.022	1	3	2	3	0.188	3	1	3_2.gif
244.022	1	4	2	2	0.103	2	1	4_2.gif
245.022	1	1	2	3	0.062	3	1	1_2.gif
246.022	1	2	2	4	0.009	4	1	2_2.gif
247.022	1	1	2	1	0.009	1	1	1_2.gif
248.022	1	4	2	2	0.008	2	1	4_2.gif
249.022	1	2	2	1	0.009	1	1	2_2.gif
250.022	1	4	2	4	0.009	4	1	4_2.gif
251.022	1	2	2	2	0.009	2	1	2_2.gif
252.022	1	1	2	6	0	4	n/a	1_2.gif
253.022	1	3	2	2	0.557	2	1	3_2.gif
254.022	1	1	2	3	0.035	1	0	1_2.gif
255.022	1	2	2	6	0	3	n/a	2_2.gif
