onset	duration	nback_display	trial_type	response	response_time	correct_response	correct	stim_file
0	1	4	0	6	0	4	n/a	4_0.gif
1	1	3	0	4	0.533	3	0	3_0.gif
2	1	4	0	3	0.258	4	0	4_0.gif
3	1	3	0	4	0.3	3	0	3_0.gif
4	1	4	0	3	0.003	4	0	4_0.gif
5	1	1	0	4	0.401	1	0	1_0.gif
6	1	3	0	3	0.003	3	1	3_0.gif
7	1	2	0	3	0.003	2	0	2_0.gif
8	1	1	0	1	0.564	1	1	1_0.gif
9	1	4	0	4	0.418	4	1	4_0.gif
10	1	1	0	1	0.528	1	1	1_0.gif
11	1	2	0	2	0.768	2	1	2_0.gif
12	1	3	0	2	0.003	3	0	3_0.gif
13	1	2	0	2	0.719	2	1	2_0.gif
14	1	3	0	3	0.586	3	1	3_0.gif
15	1	2	0	2	0.474	2	1	2_0.gif
16	1	3	2	6	0	3	n/a	3_2.gif
17	1	4	2	6	0	2	n/a	4_2.gif
18	1	3	2	3	0.273	3	1	3_2.gif
19	1	1	2	4	0.29	4	1	1_2.gif
20	1	4	2	3	0.359	3	1	4_2.gif
21	1	2	2	1	0.946	1	1	2_2.gif
22	1	3	2	1	0.003	4	0	3_2.gif
23	1	1	2	6	0	2	n/a	1_2.gif
24	1	2	2	6	0	3	n/a	2_2.gif
25	1	1	2	6	0	1	n/a	1_2.gif
26	1	3	2	3	0.911	2	0	3_2.gif
27	1	4	2	3	0.003	1	0	4_2.gif
28	1	1	2	6	0	3	n/a	1_2.gif
29	1	2	2	6	0	4	n/a	2_2.gif
30	1	4	2	6	0	1	n/a	4_2.gif
31	1	3	2	6	0	2	n/a	3_2.gif
32.001	1	1	0	1	0.447	1	1	1_0.gif
33.001	1	2	0	6	0	2	n/a	2_0.gif
34.001	1	4	0	4	0.578	4	1	4_0.gif
35.001	1	1	0	1	0.791	1	1	1_0.gif
36.001	1	3	0	1	0.003	3	0	3_0.gif
37.001	1	2	0	2	0.597	2	1	2_0.gif
38.001	1	1	0	1	0.695	1	1	1_0.gif
39.001	1	4	0	4	0.928	4	1	4_0.gif
40.001	1	2	0	4	0.003	2	0	2_0.gif
41.001	1	4	0	4	0.723	4	1	4_0.gif
42.001	1	1	0	1	0.636	1	1	1_0.gif
43.001	1	4	0	4	0.471	4	1	4_0.gif
44.001	1	3	0	3	0.455	3	1	3_0.gif
45.001	1	4	0	4	0.446	4	1	4_0.gif
46.001	1	2	0	2	0.511	2	1	2_0.gif
47.001	1	3	0	3	0.388	3	1	3_0.gif
48.001	1	1	2	6	0	2	n/a	1_2.gif
49.001	1	4	2	6	0	3	n/a	4_2.gif
50.001	1	1	2	1	0.731	1	1	1_2.gif
51.001	1	4	2	1	0.003	4	0	4_2.gif
52.001	1	2	2	6	0	1	n/a	2_2.gif
53.001	1	3	2	1	0.453	4	0	3_2.gif
54.001	1	2	2	4	0.601	2	0	2_2.gif
55.001	1	4	2	6	0	3	n/a	4_2.gif
56.001	1	2	2	6	0	2	n/a	2_2.gif
57.001	1	4	2	6	0	4	n/a	4_2.gif
58.001	1	1	2	1	0.027	2	0	1_2.gif
59.001	1	2	2	2	0.003	4	0	2_2.gif
60.001	1	4	2	6	0	1	n/a	4_2.gif
61.001	1	1	2	2	0.585	2	1	1_2.gif
62.001	1	4	2	1	0.379	4	0	4_2.gif
63.001	1	3	2	6	0	1	n/a	3_2.gif
64.001	1	1	0	1	0.792	1	1	1_0.gif
65.001	1	2	0	1	0.004	2	0	2_0.gif
66.001	1	3	0	3	0.469	3	1	3_0.gif
67.001	1	2	0	2	0.461	2	1	2_0.gif
68.001	1	3	0	3	0.287	3	1	3_0.gif
69.001	1	4	0	4	0.475	4	1	4_0.gif
70.001	1	2	0	2	0.558	2	1	2_0.gif
71.001	1	4	0	4	0.414	4	1	4_0.gif
72.001	1	1	0	1	0.497	1	1	1_0.gif
73.001	1	4	0	4	0.367	4	1	4_0.gif
74.001	1	2	0	2	0.399	2	1	2_0.gif
75.001	1	1	0	1	0.68	1	1	1_0.gif
76.001	1	3	0	3	0.522	3	1	3_0.gif
77.001	1	1	0	1	0.428	1	1	1_0.gif
78.001	1	3	0	3	0.33	3	1	3_0.gif
79.001	1	2	0	2	0.501	2	1	2_0.gif
80.002	1	4	2	6	0	3	n/a	4_2.gif
81.002	1	1	2	6	0	2	n/a	1_2.gif
82.002	1	3	2	1	0.675	4	0	3_2.gif
83.002	1	2	2	4	0.407	1	0	2_2.gif
84.002	1	4	2	6	0	3	n/a	4_2.gif
85.002	1	2	2	4	0.517	2	0	2_2.gif
86.002	1	4	2	2	0.335	4	0	4_2.gif
87.002	1	2	2	6	0	2	n/a	2_2.gif
88.002	1	3	2	4	0.2	4	1	3_2.gif
89.002	1	1	2	6	0	2	n/a	1_2.gif
90.002	1	2	2	6	0	3	n/a	2_2.gif
91.002	1	3	2	6	0	1	n/a	3_2.gif
92.002	1	4	2	6	0	2	n/a	4_2.gif
93.002	1	1	2	6	0	3	n/a	1_2.gif
94.002	1	3	2	6	0	4	n/a	3_2.gif
95.002	1	4	2	6	0	1	n/a	4_2.gif
96.003	1	1	0	1	0.529	1	1	1_0.gif
97.003	1	2	0	2	0.503	2	1	2_0.gif
98.003	1	4	0	4	0.588	4	1	4_0.gif
99.003	1	3	0	3	0.51	3	1	3_0.gif
100.003	1	4	0	4	0.474	4	1	4_0.gif
101.003	1	2	0	2	0.595	2	1	2_0.gif
102.003	1	1	0	1	0.731	1	1	1_0.gif
103.003	1	3	0	1	0.003	3	0	3_0.gif
104.003	1	1	0	1	0.58	1	1	1_0.gif
105.003	1	2	0	2	0.793	2	1	2_0.gif
106.003	1	1	0	2	0.003	1	0	1_0.gif
107.003	1	2	0	2	0.403	2	1	2_0.gif
108.003	1	4	0	4	0.411	4	1	4_0.gif
109.003	1	2	0	2	0.395	2	1	2_0.gif
110.003	1	1	0	1	0.385	1	1	1_0.gif
111.003	1	4	0	4	0.42	4	1	4_0.gif
112.003	1	1	2	1	0.507	1	1	1_2.gif
113.003	1	3	2	6	0	4	n/a	3_2.gif
114.003	1	1	2	1	0.319	1	1	1_2.gif
115.003	1	2	2	3	0.256	3	1	2_2.gif
116.003	1	1	2	1	0.925	1	1	1_2.gif
117.003	1	3	2	1	0.003	2	0	3_2.gif
118.003	1	2	2	6	0	1	n/a	2_2.gif
119.003	1	3	2	6	0	3	n/a	3_2.gif
120.003	1	2	2	6	0	2	n/a	2_2.gif
121.003	1	3	2	3	0.057	3	1	3_2.gif
122.003	1	4	2	2	0.061	2	1	4_2.gif
123.003	1	1	2	6	0	3	n/a	1_2.gif
124.003	1	2	2	6	0	4	n/a	2_2.gif
125.003	1	3	2	6	0	1	n/a	3_2.gif
126.003	1	1	2	4	0.038	2	0	1_2.gif
127.003	1	2	2	6	0	3	n/a	2_2.gif
128.004	1	3	0	1	0.431	3	0	3_0.gif
129.004	1	4	0	6	0	4	n/a	4_0.gif
130.004	1	1	0	1	0.668	1	1	1_0.gif
131.004	1	4	0	4	0.468	4	1	4_0.gif
132.004	1	2	0	2	0.601	2	1	2_0.gif
133.004	1	1	0	1	0.52	1	1	1_0.gif
134.004	1	2	0	2	0.52	2	1	2_0.gif
135.004	1	1	0	1	0.389	1	1	1_0.gif
136.004	1	2	0	2	0.34	2	1	2_0.gif
137.004	1	1	0	1	0.296	1	1	1_0.gif
138.004	1	2	0	2	0.366	2	1	2_0.gif
139.004	1	3	0	3	0.412	3	1	3_0.gif
140.004	1	2	0	2	0.45	2	1	2_0.gif
141.004	1	3	0	3	0.357	3	1	3_0.gif
142.004	1	4	0	4	0.366	4	1	4_0.gif
143.004	1	1	0	1	0.369	1	1	1_0.gif
144.004	1	2	2	6	0	4	n/a	2_2.gif
145.004	1	1	2	6	0	1	n/a	1_2.gif
146.004	1	3	2	2	0.353	2	1	3_2.gif
147.004	1	4	2	4	0.102	1	0	4_2.gif
148.004	1	2	2	6	0	3	n/a	2_2.gif
149.004	1	1	2	3	0.949	4	0	1_2.gif
150.004	1	3	2	3	0.003	2	0	3_2.gif
151.004	1	4	2	6	0	1	n/a	4_2.gif
152.004	1	1	2	6	0	3	n/a	1_2.gif
153.004	1	3	2	6	0	4	n/a	3_2.gif
154.004	1	1	2	3	0.03	1	0	1_2.gif
155.004	1	3	2	1	0.003	3	0	3_2.gif
156.004	1	1	2	6	0	1	n/a	1_2.gif
157.004	1	2	2	1	0.583	3	0	2_2.gif
158.004	1	3	2	3	0.179	1	0	3_2.gif
159.004	1	2	2	6	0	2	n/a	2_2.gif
160.005	1	4	0	4	0.831	4	1	4_0.gif
161.005	1	3	0	4	0.003	3	0	3_0.gif
162.005	1	4	0	4	0.534	4	1	4_0.gif
163.005	1	3	0	3	0.328	3	1	3_0.gif
164.005	1	4	0	4	0.351	4	1	4_0.gif
165.005	1	1	0	1	0.488	1	1	1_0.gif
166.005	1	2	0	2	0.377	2	1	2_0.gif
167.005	1	3	0	3	0.453	3	1	3_0.gif
168.005	1	4	0	4	0.33	4	1	4_0.gif
169.005	1	3	0	3	0.441	3	1	3_0.gif
170.018	1	1	0	1	0.51	1	1	1_0.gif
171.018	1	4	0	4	0.561	4	1	4_0.gif
172.018	1	1	0	1	0.525	1	1	1_0.gif
173.018	1	3	0	3	0.557	3	1	3_0.gif
174.018	1	4	0	4	0.34	4	1	4_0.gif
175.018	1	1	0	1	0.438	1	1	1_0.gif
176.019	1	2	2	6	0	4	n/a	2_2.gif
177.019	1	1	2	6	0	1	n/a	1_2.gif
178.019	1	4	2	2	0.331	2	1	4_2.gif
179.019	1	3	2	1	0.077	1	1	3_2.gif
180.019	1	1	2	6	0	4	n/a	1_2.gif
181.019	1	3	2	6	0	3	n/a	3_2.gif
182.019	1	2	2	4	0.182	1	0	2_2.gif
183.019	1	3	2	3	0.004	3	1	3_2.gif
184.019	1	1	2	6	0	2	n/a	1_2.gif
185.019	1	3	2	6	0	3	n/a	3_2.gif
186.019	1	2	2	3	0.568	1	0	2_2.gif
187.019	1	3	2	2	0.17	3	0	3_2.gif
188.019	1	2	2	6	0	2	n/a	2_2.gif
189.019	1	3	2	6	0	3	n/a	3_2.gif
190.019	1	1	2	6	0	2	n/a	1_2.gif
191.019	1	3	2	6	0	3	n/a	3_2.gif
192.02	1	1	0	1	0.224	1	1	1_0.gif
193.02	1	4	0	4	0.62	4	1	4_0.gif
194.02	1	3	0	3	0.45	3	1	3_0.gif
195.02	1	4	0	4	0.503	4	1	4_0.gif
196.02	1	3	0	3	0.328	3	1	3_0.gif
197.02	1	4	0	4	0.33	4	1	4_0.gif
198.02	1	1	0	1	0.455	1	1	1_0.gif
199.02	1	3	0	3	0.408	3	1	3_0.gif
200.02	1	2	0	2	0.431	2	1	2_0.gif
201.02	1	1	0	1	0.426	1	1	1_0.gif
202.02	1	4	0	4	0.349	4	1	4_0.gif
203.02	1	1	0	1	0.399	1	1	1_0.gif
204.02	1	2	0	2	0.395	2	1	2_0.gif
205.02	1	3	0	3	0.533	3	1	3_0.gif
206.02	1	2	0	2	0.493	2	1	2_0.gif
207.02	1	3	0	3	0.451	3	1	3_0.gif
208.02	1	2	2	6	0	2	n/a	2_2.gif
209.02	1	3	2	6	0	3	n/a	3_2.gif
210.02	1	4	2	3	0.562	2	0	4_2.gif
211.02	1	3	2	6	0	3	n/a	3_2.gif
212.02	1	1	2	6	0	4	n/a	1_2.gif
213.02	1	4	2	6	0	3	n/a	4_2.gif
214.02	1	2	2	6	0	1	n/a	2_2.gif
215.02	1	3	2	6	0	4	n/a	3_2.gif
216.02	1	1	2	2	0.692	2	1	1_2.gif
217.02	1	2	2	3	0.259	3	1	2_2.gif
218.02	1	1	2	6	0	1	n/a	1_2.gif
219.02	1	3	2	1	0.649	2	0	3_2.gif
220.02	1	4	2	2	0.303	1	0	4_2.gif
221.02	1	1	2	6	0	3	n/a	1_2.gif
222.02	1	2	2	1	0.517	4	0	2_2.gif
223.02	1	4	2	3	0.208	1	0	4_2.gif
224.021	1	3	0	6	0	3	n/a	3_0.gif
225.021	1	1	0	3	0.031	1	0	1_0.gif
226.021	1	2	0	2	0.509	2	1	2_0.gif
227.021	1	4	0	4	0.339	4	1	4_0.gif
228.021	1	1	0	1	0.311	1	1	1_0.gif
229.021	1	3	0	3	0.391	3	1	3_0.gif
230.021	1	2	0	2	0.431	2	1	2_0.gif
231.021	1	1	0	1	0.468	1	1	1_0.gif
232.021	1	4	0	4	0.405	4	1	4_0.gif
233.021	1	2	0	2	0.331	2	1	2_0.gif
234.021	1	4	0	4	0.501	4	1	4_0.gif
235.021	1	1	0	1	0.611	1	1	1_0.gif
236.021	1	4	0	4	0.411	4	1	4_0.gif
237.021	1	3	0	3	0.486	3	1	3_0.gif
238.021	1	4	0	4	0.347	4	1	4_0.gif
239.021	1	2	0	2	0.415	2	1	2_0.gif
240.021	1	3	2	6	0	4	n/a	3_2.gif
241.021	1	1	2	6	0	2	n/a	1_2.gif
242.021	1	4	2	3	0.24	3	1	4_2.gif
243.021	1	1	2	4	0.005	1	0	1_2.gif
244.021	1	4	2	6	0	4	n/a	4_2.gif
245.021	1	2	2	4	0.602	1	0	2_2.gif
246.021	1	3	2	1	0.32	4	0	3_2.gif
247.021	1	2	2	6	0	2	n/a	2_2.gif
248.021	1	4	2	6	0	3	n/a	4_2.gif
249.021	1	2	2	3	0.156	2	0	2_2.gif
250.021	1	4	2	2	0.003	4	0	4_2.gif
251.021	1	1	2	6	0	2	n/a	1_2.gif
252.021	1	2	2	6	0	4	n/a	2_2.gif
253.021	1	4	2	1	0.341	1	1	4_2.gif
254.021	1	1	2	2	0.593	2	1	1_2.gif
255.021	1	4	2	6	0	4	n/a	4_2.gif
