onset	duration	nback_display	trial_type	response	response_time	correct_response	correct	stim_file
0	1	1	0	1	0.948	1	1	1_0.gif
1	1	2	0	1	0.013	2	0	2_0.gif
2	1	3	0	2	0.014	3	0	3_0.gif
3	1	1	0	1	0.749	1	1	1_0.gif
4	1	2	0	2	0.658	2	1	2_0.gif
5	1	1	0	1	0.487	1	1	1_0.gif
6	1	2	0	2	0.591	2	1	2_0.gif
7	1	3	0	3	0.506	3	1	3_0.gif
8	1	1	0	1	0.439	1	1	1_0.gif
9	1	3	0	3	0.774	3	1	3_0.gif
10	1	4	0	4	0.602	4	1	4_0.gif
11	1	1	0	1	0.474	1	1	1_0.gif
12	1	3	0	3	0.563	3	1	3_0.gif
13	1	1	0	1	0.459	1	1	1_0.gif
14	1	3	0	3	0.497	3	1	3_0.gif
15	1	4	0	4	0.504	4	1	4_0.gif
16	1	2	2	6	0	3	n/a	2_2.gif
17	1	1	2	6	0	4	n/a	1_2.gif
18	1	3	2	2	0.581	2	1	3_2.gif
19	1	2	2	1	0.575	1	1	2_2.gif
20	1	1	2	3	0.536	3	1	1_2.gif
21	1	3	2	2	0.502	2	1	3_2.gif
22	1	1	2	1	0.441	1	1	1_2.gif
23	1	3	2	3	0.443	3	1	3_2.gif
24.001	1	4	2	1	0.291	1	1	4_2.gif
25.001	1	1	2	3	0.332	3	1	1_2.gif
26.001	1	2	2	4	0.257	4	1	2_2.gif
27.001	1	3	2	1	0.265	1	1	3_2.gif
28.001	1	4	2	2	0.287	2	1	4_2.gif
29.001	1	3	2	3	0.302	3	1	3_2.gif
30.001	1	2	2	4	0.24	4	1	2_2.gif
31.001	1	3	2	3	0.202	3	1	3_2.gif
32.001	1	1	0	2	0.073	1	0	1_0.gif
33.001	1	2	0	3	0.015	2	0	2_0.gif
34.001	1	4	0	1	0.129	4	0	4_0.gif
35.001	1	3	0	3	0.348	3	1	3_0.gif
36.001	1	2	0	2	0.479	2	1	2_0.gif
37.001	1	1	0	1	0.367	1	1	1_0.gif
38.001	1	2	0	2	0.465	2	1	2_0.gif
39.001	1	1	0	1	0.355	1	1	1_0.gif
40.001	1	4	0	4	0.405	4	1	4_0.gif
41.001	1	1	0	1	0.37	1	1	1_0.gif
42.001	1	3	0	3	0.455	3	1	3_0.gif
43.001	1	4	0	4	0.44	4	1	4_0.gif
44.001	1	1	0	1	0.414	1	1	1_0.gif
45.001	1	3	0	3	0.519	3	1	3_0.gif
46.001	1	4	0	4	0.4	4	1	4_0.gif
47.001	1	1	0	1	0.474	1	1	1_0.gif
48.002	1	2	2	6	0	4	n/a	2_2.gif
49.002	1	1	2	6	0	1	n/a	1_2.gif
50.002	1	2	2	2	0.433	2	1	2_2.gif
51.002	1	3	2	1	0.359	1	1	3_2.gif
52.002	1	1	2	2	0.375	2	1	1_2.gif
53.002	1	2	2	3	0.423	3	1	2_2.gif
54.002	1	1	2	1	0.4	1	1	1_2.gif
55.002	1	4	2	2	0.367	2	1	4_2.gif
56.002	1	2	2	1	0.325	1	1	2_2.gif
57.002	1	4	2	4	0.31	4	1	4_2.gif
58.002	1	3	2	1	0.156	2	0	3_2.gif
59.002	1	4	2	2	0.065	4	0	4_2.gif
60.002	1	2	2	3	0.022	3	1	2_2.gif
61.002	1	1	2	4	0.014	4	1	1_2.gif
62.002	1	3	2	3	0.014	2	0	3_2.gif
63.002	1	1	2	2	0.014	1	0	1_2.gif
64.004	1	2	0	2	0.786	2	1	2_0.gif
65.004	1	1	0	1	0.364	1	1	1_0.gif
66.004	1	3	0	3	0.351	3	1	3_0.gif
67.004	1	2	0	2	0.4	2	1	2_0.gif
68.004	1	4	0	4	0.474	4	1	4_0.gif
69.004	1	3	0	3	0.395	3	1	3_0.gif
70.004	1	4	0	4	0.474	4	1	4_0.gif
71.004	1	2	0	2	0.33	2	1	2_0.gif
72.004	1	4	0	4	0.436	4	1	4_0.gif
73.004	1	3	0	3	0.346	3	1	3_0.gif
74.004	1	4	0	4	0.377	4	1	4_0.gif
75.004	1	2	0	2	0.321	2	1	2_0.gif
76.004	1	1	0	1	0.461	1	1	1_0.gif
77.004	1	3	0	3	0.489	3	1	3_0.gif
78.004	1	4	0	4	0.362	4	1	4_0.gif
79.004	1	2	0	2	0.372	2	1	2_0.gif
80.005	1	4	2	6	0	4	n/a	4_2.gif
81.005	1	2	2	6	0	2	n/a	2_2.gif
82.005	1	4	2	4	0.287	4	1	4_2.gif
83.005	1	2	2	2	0.243	2	1	2_2.gif
84.005	1	3	2	4	0.361	4	1	3_2.gif
85.005	1	1	2	2	0.25	2	1	1_2.gif
86.005	1	3	2	3	0.315	3	1	3_2.gif
87.005	1	1	2	1	0.234	1	1	1_2.gif
88.005	1	2	2	3	0.225	3	1	2_2.gif
89.005	1	4	2	1	0.221	1	1	4_2.gif
90.005	1	2	2	2	0.12	2	1	2_2.gif
91.005	1	1	2	4	0.138	4	1	1_2.gif
92.005	1	3	2	2	0.225	2	1	3_2.gif
93.005	1	2	2	1	0.205	1	1	2_2.gif
94.005	1	3	2	3	0.231	3	1	3_2.gif
95.005	1	4	2	2	0.068	2	1	4_2.gif
96.007	1	2	0	3	0.032	2	0	2_0.gif
97.007	1	1	0	2	0.239	1	0	1_0.gif
98.007	1	4	0	4	0.454	4	1	4_0.gif
99.007	1	2	0	2	0.391	2	1	2_0.gif
100.007	1	3	0	3	0.409	3	1	3_0.gif
101.007	1	4	0	4	0.877	4	1	4_0.gif
102.007	1	2	0	4	0.014	2	0	2_0.gif
103.007	1	3	0	3	0.459	3	1	3_0.gif
104.007	1	4	0	4	0.424	4	1	4_0.gif
105.007	1	2	0	2	0.382	2	1	2_0.gif
106.007	1	1	0	1	0.44	1	1	1_0.gif
107.007	1	3	0	3	0.389	3	1	3_0.gif
108.007	1	4	0	4	0.298	4	1	4_0.gif
109.007	1	1	0	1	0.409	1	1	1_0.gif
110.007	1	3	0	3	0.384	3	1	3_0.gif
111.007	1	1	0	1	0.422	1	1	1_0.gif
112.008	1	3	2	6	0	3	n/a	3_2.gif
113.008	1	1	2	6	0	1	n/a	1_2.gif
114.008	1	2	2	3	0.232	3	1	2_2.gif
115.008	1	4	2	1	0.211	1	1	4_2.gif
116.008	1	2	2	2	0.162	2	1	2_2.gif
117.008	1	3	2	4	0.193	4	1	3_2.gif
118.008	1	2	2	2	0.238	2	1	2_2.gif
119.008	1	3	2	3	0.23	3	1	3_2.gif
120.008	1	1	2	2	0.189	2	1	1_2.gif
121.008	1	3	2	3	0.142	3	1	3_2.gif
122.008	1	4	2	1	0.143	1	1	4_2.gif
123.008	1	1	2	3	0.154	3	1	1_2.gif
124.008	1	4	2	1	0.023	4	0	4_2.gif
125.008	1	1	2	4	0.47	1	0	1_2.gif
126.008	1	2	2	1	0.407	4	0	2_2.gif
127.008	1	4	2	4	0.179	1	0	4_2.gif
128.009	1	1	0	1	0.618	1	1	1_0.gif
129.009	1	2	0	2	0.432	2	1	2_0.gif
130.009	1	4	0	4	0.361	4	1	4_0.gif
131.009	1	1	0	1	0.384	1	1	1_0.gif
132.009	1	3	0	3	0.378	3	1	3_0.gif
133.009	1	4	0	4	0.285	4	1	4_0.gif
134.009	1	1	0	1	0.351	1	1	1_0.gif
135.009	1	2	0	2	0.323	2	1	2_0.gif
136.009	1	1	0	1	0.46	1	1	1_0.gif
137.009	1	4	0	4	0.452	4	1	4_0.gif
138.009	1	3	0	3	0.445	3	1	3_0.gif
139.009	1	4	0	4	0.416	4	1	4_0.gif
140.009	1	1	0	1	0.661	1	1	1_0.gif
141.009	1	3	0	3	0.427	3	1	3_0.gif
142.009	1	4	0	4	0.337	4	1	4_0.gif
143.009	1	3	0	3	0.394	3	1	3_0.gif
144.01	1	1	2	6	0	4	n/a	1_2.gif
145.01	1	3	2	6	0	3	n/a	3_2.gif
146.01	1	2	2	1	0.191	1	1	2_2.gif
147.01	1	1	2	3	0.24	3	1	1_2.gif
148.01	1	3	2	2	0.261	2	1	3_2.gif
149.01	1	1	2	1	0.217	1	1	1_2.gif
150.01	1	3	2	3	0.177	3	1	3_2.gif
151.01	1	4	2	1	0.248	1	1	4_2.gif
152.01	1	2	2	3	0.155	3	1	2_2.gif
153.01	1	4	2	4	0.088	4	1	4_2.gif
154.01	1	1	2	2	0.099	2	1	1_2.gif
155.01	1	4	2	4	0.226	4	1	4_2.gif
156.01	1	3	2	1	0.186	1	1	3_2.gif
157.01	1	1	2	4	0.223	4	1	1_2.gif
158.01	1	3	2	3	0.366	3	1	3_2.gif
159.01	1	2	2	1	0.374	1	1	2_2.gif
160.011	1	4	0	6	0	4	n/a	4_0.gif
161.013	1	2	0	4	0.128	2	0	2_0.gif
162.013	1	4	0	4	0.446	4	1	4_0.gif
163.013	1	2	0	2	0.462	2	1	2_0.gif
164.013	1	4	0	4	0.335	4	1	4_0.gif
165.013	1	2	0	2	0.367	2	1	2_0.gif
166.013	1	3	0	3	0.389	3	1	3_0.gif
167.013	1	4	0	4	0.502	4	1	4_0.gif
168.013	1	2	0	2	0.433	2	1	2_0.gif
169.013	1	1	0	1	0.394	1	1	1_0.gif
170.013	1	2	0	2	0.42	2	1	2_0.gif
171.013	1	4	0	4	0.369	4	1	4_0.gif
172.013	1	1	0	1	0.395	1	1	1_0.gif
173.013	1	2	0	2	0.429	2	1	2_0.gif
174.013	1	4	0	4	0.402	4	1	4_0.gif
175.013	1	3	0	3	0.528	3	1	3_0.gif
176.014	1	1	2	6	0	4	n/a	1_2.gif
177.014	1	2	2	6	0	3	n/a	2_2.gif
178.014	1	1	2	1	0.229	1	1	1_2.gif
179.014	1	2	2	2	0.251	2	1	2_2.gif
180.014	1	1	2	1	0.25	1	1	1_2.gif
181.014	1	4	2	2	0.424	2	1	4_2.gif
182.014	1	1	2	1	0.235	1	1	1_2.gif
183.014	1	4	2	4	0.242	4	1	4_2.gif
184.014	1	1	2	1	0.267	1	1	1_2.gif
185.014	1	4	2	4	0.2	4	1	4_2.gif
186.014	1	3	2	1	0.366	1	1	3_2.gif
187.014	1	4	2	4	0.227	4	1	4_2.gif
188.014	1	2	2	3	0.551	3	1	2_2.gif
189.014	1	4	2	4	0.475	4	1	4_2.gif
190.014	1	3	2	2	0.366	2	1	3_2.gif
191.014	1	4	2	4	0.209	4	1	4_2.gif
192.015	1	1	0	6	0	1	n/a	1_0.gif
193.015	1	4	0	1	0.164	4	0	4_0.gif
194.015	1	2	0	2	0.327	2	1	2_0.gif
195.015	1	4	0	4	0.384	4	1	4_0.gif
196.015	1	3	0	3	0.4	3	1	3_0.gif
197.015	1	1	0	1	0.376	1	1	1_0.gif
198.015	1	2	0	2	0.41	2	1	2_0.gif
199.015	1	3	0	3	0.438	3	1	3_0.gif
200.015	1	1	0	1	0.394	1	1	1_0.gif
201.015	1	2	0	2	0.382	2	1	2_0.gif
202.015	1	1	0	1	0.305	1	1	1_0.gif
203.015	1	2	0	2	0.402	2	1	2_0.gif
204.015	1	3	0	3	0.359	3	1	3_0.gif
205.015	1	1	0	1	0.293	1	1	1_0.gif
206.015	1	3	0	3	0.422	3	1	3_0.gif
207.015	1	4	0	4	0.438	4	1	4_0.gif
208.016	1	1	2	1	0.379	3	0	1_2.gif
209.016	1	3	2	6	0	4	n/a	3_2.gif
210.016	1	1	2	1	0.457	1	1	1_2.gif
211.016	1	3	2	3	0.317	3	1	3_2.gif
212.017	1	4	2	1	0.286	1	1	4_2.gif
213.017	1	2	2	3	0.178	3	1	2_2.gif
214.017	1	1	2	4	0.302	4	1	1_2.gif
215.017	1	3	2	2	0.374	2	1	3_2.gif
216.017	1	2	2	1	0.404	1	1	2_2.gif
217.017	1	1	2	3	0.401	3	1	1_2.gif
218.017	1	3	2	2	0.481	2	1	3_2.gif
219.017	1	1	2	1	0.367	1	1	1_2.gif
220.017	1	3	2	3	0.281	3	1	3_2.gif
221.017	1	4	2	1	0.259	1	1	4_2.gif
222.024	1	1	2	3	0.425	3	1	1_2.gif
223.024	1	2	2	4	0.296	4	1	2_2.gif
224.025	1	3	0	3	0.885	3	1	3_0.gif
225.025	1	4	0	4	0.977	4	1	4_0.gif
226.025	1	3	0	4	0.016	3	0	3_0.gif
227.025	1	2	0	2	0.552	2	1	2_0.gif
228.025	1	3	0	3	0.39	3	1	3_0.gif
229.025	1	1	0	1	0.257	1	1	1_0.gif
230.025	1	2	0	2	0.413	2	1	2_0.gif
231.025	1	4	0	4	0.405	4	1	4_0.gif
232.025	1	3	0	3	0.284	3	1	3_0.gif
233.025	1	2	0	2	0.407	2	1	2_0.gif
234.025	1	1	0	1	0.473	1	1	1_0.gif
235.025	1	2	0	2	0.412	2	1	2_0.gif
236.025	1	1	0	1	0.382	1	1	1_0.gif
237.025	1	4	0	4	0.388	4	1	4_0.gif
238.025	1	1	0	1	0.392	1	1	1_0.gif
239.025	1	3	0	3	0.4	3	1	3_0.gif
240.026	1	4	2	6	0	1	n/a	4_2.gif
241.026	1	1	2	6	0	3	n/a	1_2.gif
242.026	1	3	2	4	0.169	4	1	3_2.gif
243.026	1	4	2	1	0.296	1	1	4_2.gif
244.026	1	1	2	3	0.336	3	1	1_2.gif
245.026	1	2	2	4	0.247	4	1	2_2.gif
246.026	1	1	2	1	0.33	1	1	1_2.gif
247.026	1	2	2	2	0.309	2	1	2_2.gif
248.026	1	3	2	1	0.316	1	1	3_2.gif
249.026	1	1	2	2	0.312	2	1	1_2.gif
250.026	1	2	2	3	0.234	3	1	2_2.gif
251.026	1	1	2	1	0.208	1	1	1_2.gif
252.026	1	4	2	2	0.191	2	1	4_2.gif
253.026	1	2	2	1	0.307	1	1	2_2.gif
254.026	1	4	2	4	0.165	4	1	4_2.gif
255.026	1	3	2	2	0.24	2	1	3_2.gif
