onset	duration	nback_display	trial_type	response	response_time	correct_response	correct	stim_file
0	1	4	0	4	0.928	4	1	4_0.gif
1	1	3	0	4	0.005	3	0	3_0.gif
2	1	4	0	4	0.433	4	1	4_0.gif
3	1	3	0	3	0.5	3	1	3_0.gif
4	1	4	0	4	0.483	4	1	4_0.gif
5	1	1	0	1	0.502	1	1	1_0.gif
6	1	4	0	4	0.596	4	1	4_0.gif
7	1	3	0	3	0.623	3	1	3_0.gif
8	1	1	0	1	0.446	1	1	1_0.gif
9	1	4	0	4	0.436	4	1	4_0.gif
10	1	1	0	1	0.415	1	1	1_0.gif
11	1	2	0	2	0.448	2	1	2_0.gif
12	1	3	0	3	0.386	3	1	3_0.gif
13	1	2	0	2	0.404	2	1	2_0.gif
14	1	3	0	3	0.411	3	1	3_0.gif
15	1	2	0	2	0.368	2	1	2_0.gif
16	1	4	2	6	0	3	n/a	4_2.gif
17	1	2	2	6	0	2	n/a	2_2.gif
18	1	3	2	4	0.676	4	1	3_2.gif
19	1	4	2	2	0.528	2	1	4_2.gif
20	1	2	2	6	0	3	n/a	2_2.gif
21	1	1	2	3	0.202	4	0	1_2.gif
22	1	2	2	4	0.248	2	0	2_2.gif
23	1	1	2	2	0.334	1	0	1_2.gif
24	1	3	2	1	0.165	2	0	3_2.gif
25	1	4	2	2	0.085	1	0	4_2.gif
26	1	1	2	1	0.006	3	0	1_2.gif
27	1	2	2	3	0.006	4	0	2_2.gif
28	1	4	2	4	0.177	1	0	4_2.gif
29	1	3	2	1	0.22	2	0	3_2.gif
30	1	1	2	2	0.353	4	0	1_2.gif
31	1	2	2	4	0.305	3	0	2_2.gif
32	1	4	0	3	0.292	4	0	4_0.gif
33	1	1	0	4	0.006	1	0	1_0.gif
34	1	3	0	3	0.511	3	1	3_0.gif
35	1	2	0	2	0.353	2	1	2_0.gif
36	1	1	0	1	0.431	1	1	1_0.gif
37	1	4	0	4	0.44	4	1	4_0.gif
38	1	1	0	1	0.45	1	1	1_0.gif
39	1	2	0	2	0.389	2	1	2_0.gif
40	1	1	0	1	0.416	1	1	1_0.gif
41	1	4	0	4	0.368	4	1	4_0.gif
42	1	3	0	3	0.442	3	1	3_0.gif
43	1	4	0	4	0.385	4	1	4_0.gif
44	1	2	0	2	0.273	2	1	2_0.gif
45	1	3	0	3	0.399	3	1	3_0.gif
46	1	2	0	2	0.287	2	1	2_0.gif
47	1	4	0	4	0.382	4	1	4_0.gif
48	1	1	2	6	0	2	n/a	1_2.gif
49	1	4	2	6	0	4	n/a	4_2.gif
50	1	2	2	1	0.394	1	1	2_2.gif
51	1	3	2	4	0.456	4	1	3_2.gif
52	1	2	2	6	0	2	n/a	2_2.gif
53	1	4	2	2	0.073	3	0	4_2.gif
54	1	3	2	3	0.088	2	0	3_2.gif
55	1	4	2	2	0.094	4	0	4_2.gif
56	1	2	2	4	0.168	3	0	2_2.gif
57	1	3	2	3	0.1	4	0	3_2.gif
58	1	1	2	4	0.089	2	0	1_2.gif
59	1	4	2	2	0.006	3	0	4_2.gif
60	1	3	2	3	0.006	1	0	3_2.gif
61.001	1	1	2	1	0.007	4	0	1_2.gif
62.001	1	3	2	4	0.006	3	0	3_2.gif
63.001	1	2	2	3	0.006	1	0	2_2.gif
64.002	1	1	0	1	0.006	1	1	1_0.gif
65.002	1	3	0	1	0.005	3	0	3_0.gif
66.002	1	1	0	1	0.619	1	1	1_0.gif
67.002	1	3	0	3	0.523	3	1	3_0.gif
68.002	1	4	0	4	0.431	4	1	4_0.gif
69.002	1	2	0	2	0.44	2	1	2_0.gif
70.002	1	4	0	4	0.473	4	1	4_0.gif
71.002	1	1	0	1	0.541	1	1	1_0.gif
72.002	1	4	0	4	0.482	4	1	4_0.gif
73.002	1	2	0	2	0.349	2	1	2_0.gif
74.002	1	1	0	1	0.424	1	1	1_0.gif
75.002	1	3	0	3	0.468	3	1	3_0.gif
76.002	1	1	0	1	0.466	1	1	1_0.gif
77.002	1	3	0	3	0.454	3	1	3_0.gif
78.002	1	2	0	2	0.331	2	1	2_0.gif
79.002	1	4	0	4	0.394	4	1	4_0.gif
80.002	1	1	2	6	0	2	n/a	1_2.gif
81.002	1	3	2	6	0	4	n/a	3_2.gif
82.002	1	2	2	1	0.663	1	1	2_2.gif
83.002	1	3	2	6	0	3	n/a	3_2.gif
84.002	1	4	2	3	0.02	2	0	4_2.gif
85.002	1	1	2	3	0.735	3	1	1_2.gif
86.002	1	2	2	4	0.653	4	1	2_2.gif
87.002	1	1	2	6	0	1	n/a	1_2.gif
88.002	1	2	2	1	0.265	2	0	2_2.gif
89.002	1	3	2	2	0.332	1	0	3_2.gif
90.002	1	4	2	1	0.11	2	0	4_2.gif
91.002	1	1	2	2	0.007	3	0	1_2.gif
92.002	1	2	2	3	0.006	4	0	2_2.gif
93.002	1	4	2	4	0.006	1	0	4_2.gif
94.002	1	1	2	2	0.713	2	1	1_2.gif
95.002	1	3	2	4	0.591	4	1	3_2.gif
96.002	1	4	0	4	0.781	4	1	4_0.gif
97.002	1	2	0	4	0.007	2	0	2_0.gif
98.002	1	3	0	3	0.517	3	1	3_0.gif
99.002	1	1	0	1	0.436	1	1	1_0.gif
100.002	1	3	0	3	0.447	3	1	3_0.gif
101.002	1	4	0	4	0.433	4	1	4_0.gif
102.002	1	3	0	3	0.458	3	1	3_0.gif
103.002	1	1	0	1	0.379	1	1	1_0.gif
104.002	1	3	0	3	0.45	3	1	3_0.gif
105.002	1	1	0	1	0.394	1	1	1_0.gif
106.002	1	2	0	2	0.4	2	1	2_0.gif
107.002	1	3	0	3	0.402	3	1	3_0.gif
108.002	1	2	0	2	0.405	2	1	2_0.gif
109.002	1	1	0	1	0.427	1	1	1_0.gif
110.002	1	2	0	2	0.396	2	1	2_0.gif
111.002	1	4	0	4	0.458	4	1	4_0.gif
112.002	1	1	2	6	0	2	n/a	1_2.gif
113.002	1	3	2	6	0	4	n/a	3_2.gif
114.002	1	4	2	1	0.942	1	1	4_2.gif
115.002	1	2	2	1	0.007	3	0	2_2.gif
116.002	1	3	2	3	0.006	4	0	3_2.gif
117.002	1	2	2	4	0.016	2	0	2_2.gif
118.002	1	4	2	2	0.007	3	0	4_2.gif
119.002	1	1	2	3	0.006	2	0	1_2.gif
120.002	1	3	2	2	0.306	4	0	3_2.gif
121.002	1	1	2	4	0.178	1	0	1_2.gif
122.002	1	2	2	1	0.065	3	0	2_2.gif
123.002	1	1	2	3	0.007	1	0	1_2.gif
124.002	1	3	2	2	0.487	2	1	3_2.gif
125.002	1	2	2	1	0.228	1	1	2_2.gif
126.002	1	3	2	2	0.006	3	0	3_2.gif
127.002	1	2	2	3	0.007	2	0	2_2.gif
128.002	1	3	0	3	0.178	3	1	3_0.gif
129.002	1	1	0	3	0.105	1	0	1_0.gif
130.002	1	4	0	4	0.361	4	1	4_0.gif
131.002	1	1	0	1	0.311	1	1	1_0.gif
132.002	1	2	0	2	0.355	2	1	2_0.gif
133.002	1	3	0	3	0.363	3	1	3_0.gif
134.002	1	4	0	4	0.355	4	1	4_0.gif
135.002	1	2	0	2	0.365	2	1	2_0.gif
136.002	1	1	0	1	0.312	1	1	1_0.gif
137.002	1	3	0	3	0.359	3	1	3_0.gif
138.002	1	4	0	4	0.344	4	1	4_0.gif
139.002	1	2	0	2	0.287	2	1	2_0.gif
140.002	1	3	0	3	0.382	3	1	3_0.gif
141.002	1	4	0	4	0.391	4	1	4_0.gif
142.002	1	1	0	1	0.411	1	1	1_0.gif
143.002	1	4	0	4	0.4	4	1	4_0.gif
144.003	1	2	2	6	0	1	n/a	2_2.gif
145.003	1	4	2	6	0	4	n/a	4_2.gif
146.003	1	2	2	3	0.358	2	0	2_2.gif
147.003	1	1	2	4	0.318	4	1	1_2.gif
148.003	1	2	2	2	0.209	2	1	2_2.gif
149.003	1	4	2	1	0.153	1	1	4_2.gif
150.003	1	1	2	2	0.128	2	1	1_2.gif
151.003	1	3	2	1	0.006	4	0	3_2.gif
152.003	1	2	2	4	0.005	1	0	2_2.gif
153.003	1	4	2	1	0.005	3	0	4_2.gif
154.003	1	3	2	6	0	2	n/a	3_2.gif
155.003	1	2	2	2	0.45	4	0	2_2.gif
156.003	1	4	2	4	0.246	3	0	4_2.gif
157.003	1	2	2	3	0.249	2	0	2_2.gif
158.003	1	1	2	4	0.372	4	1	1_2.gif
159.003	1	2	2	2	0.525	2	1	2_2.gif
160.003	1	3	0	1	0.296	3	0	3_0.gif
161.003	1	4	0	4	0.946	4	1	4_0.gif
162.003	1	2	0	4	0.007	2	0	2_0.gif
163.003	1	3	0	3	0.536	3	1	3_0.gif
164.003	1	1	0	1	0.548	1	1	1_0.gif
165.003	1	3	0	3	0.653	3	1	3_0.gif
166.003	1	4	0	4	0.615	4	1	4_0.gif
167.003	1	1	0	1	0.463	1	1	1_0.gif
168.003	1	3	0	3	0.535	3	1	3_0.gif
169.003	1	1	0	1	0.48	1	1	1_0.gif
170.003	1	3	0	3	0.398	3	1	3_0.gif
171.003	1	1	0	1	0.36	1	1	1_0.gif
172.003	1	2	0	2	0.369	2	1	2_0.gif
173.003	1	3	0	3	0.425	3	1	3_0.gif
174.003	1	2	0	2	0.41	2	1	2_0.gif
175.003	1	4	0	4	0.368	4	1	4_0.gif
176.003	1	3	2	6	0	2	n/a	3_2.gif
177.003	1	4	2	6	0	4	n/a	4_2.gif
178.003	1	3	2	3	0.216	3	1	3_2.gif
179.003	1	4	2	4	0.295	4	1	4_2.gif
180.003	1	1	2	3	0.376	3	1	1_2.gif
181.003	1	3	2	4	0.188	4	1	3_2.gif
182.003	1	1	2	1	0.093	1	1	1_2.gif
183.003	1	3	2	6	0	3	n/a	3_2.gif
184.003	1	1	2	3	0.317	1	0	1_2.gif
185.003	1	4	2	1	0.182	3	0	4_2.gif
186.003	1	1	2	3	0.007	1	0	1_2.gif
187.003	1	3	2	4	0.006	4	1	3_2.gif
188.003	1	4	2	6	0	1	n/a	4_2.gif
189.003	1	1	2	3	0.029	3	1	1_2.gif
190.003	1	2	2	6	0	4	n/a	2_2.gif
191.003	1	1	2	6	0	1	n/a	1_2.gif
192.003	1	4	0	4	0.687	4	1	4_0.gif
193.003	1	3	0	3	0.54	3	1	3_0.gif
194.003	1	2	0	2	0.394	2	1	2_0.gif
195.003	1	4	0	4	0.427	4	1	4_0.gif
196.003	1	2	0	2	0.392	2	1	2_0.gif
197.003	1	3	0	3	0.442	3	1	3_0.gif
198.003	1	1	0	1	0.356	1	1	1_0.gif
199.003	1	3	0	3	0.41	3	1	3_0.gif
200.003	1	2	0	2	0.364	2	1	2_0.gif
201.003	1	3	0	3	0.425	3	1	3_0.gif
202.003	1	4	0	4	0.514	4	1	4_0.gif
203.003	1	3	0	3	0.408	3	1	3_0.gif
204.003	1	1	0	1	0.494	1	1	1_0.gif
205.003	1	4	0	4	0.427	4	1	4_0.gif
206.003	1	3	0	3	0.458	3	1	3_0.gif
207.003	1	4	0	4	0.474	4	1	4_0.gif
208.003	1	3	2	6	0	3	n/a	3_2.gif
209.003	1	4	2	6	0	4	n/a	4_2.gif
210.003	1	1	2	3	0.478	3	1	1_2.gif
211.003	1	4	2	4	0.303	4	1	4_2.gif
212.003	1	3	2	1	0.295	1	1	3_2.gif
213.003	1	1	2	4	0.096	4	1	1_2.gif
214.003	1	4	2	3	0.006	3	1	4_2.gif
215.003	1	1	2	1	0.006	1	1	1_2.gif
216.003	1	2	2	4	0.919	4	1	2_2.gif
217.003	1	3	2	4	0.007	1	0	3_2.gif
218.003	1	2	2	2	0.397	2	1	2_2.gif
219.003	1	3	2	3	0.46	3	1	3_2.gif
220.003	1	2	2	2	0.249	2	1	2_2.gif
221.003	1	4	2	3	0.148	3	1	4_2.gif
222.003	1	2	2	2	0.007	2	1	2_2.gif
223.003	1	3	2	4	0.006	4	1	3_2.gif
224.004	1	4	0	4	0.897	4	1	4_0.gif
225.004	1	2	0	4	0.006	2	0	2_0.gif
226.004	1	1	0	1	0.419	1	1	1_0.gif
227.004	1	2	0	2	0.38	2	1	2_0.gif
228.004	1	1	0	1	0.436	1	1	1_0.gif
229.004	1	3	0	3	0.481	3	1	3_0.gif
230.004	1	4	0	4	0.331	4	1	4_0.gif
231.004	1	1	0	1	0.389	1	1	1_0.gif
232.004	1	2	0	2	0.321	2	1	2_0.gif
233.004	1	4	0	4	0.336	4	1	4_0.gif
234.004	1	3	0	3	0.309	3	1	3_0.gif
235.004	1	1	0	1	0.325	1	1	1_0.gif
236.004	1	2	0	2	0.322	2	1	2_0.gif
237.004	1	4	0	4	0.275	4	1	4_0.gif
238.004	1	1	0	1	0.388	1	1	1_0.gif
239.004	1	3	0	3	0.267	3	1	3_0.gif
240.004	1	2	2	6	0	1	n/a	2_2.gif
241.004	1	1	2	6	0	3	n/a	1_2.gif
242.004	1	4	2	2	0.341	2	1	4_2.gif
243.004	1	1	2	1	0.603	1	1	1_2.gif
244.004	1	2	2	4	0.456	4	1	2_2.gif
245.004	1	1	2	1	0.227	1	1	1_2.gif
246.004	1	4	2	2	0.507	2	1	4_2.gif
247.004	1	3	2	1	0.567	1	1	3_2.gif
248.004	1	4	2	4	0.721	4	1	4_2.gif
249.004	1	2	2	3	0.742	3	1	2_2.gif
250.004	1	3	2	2	0.745	4	0	3_2.gif
251.004	1	2	2	6	0	2	n/a	2_2.gif
252.004	1	4	2	6	0	3	n/a	4_2.gif
253.004	1	1	2	3	0.162	2	0	1_2.gif
254.004	1	4	2	4	0.006	4	1	4_2.gif
255.004	1	2	2	1	0.322	1	1	2_2.gif
