onset	duration	nback_display	trial_type	response	response_time	correct_response	correct	stim_file
0	1	1	0	1	0.866	1	1	1_0.gif
1	1	3	0	1	0.003	3	0	3_0.gif
2	1	2	0	2	0.323	2	1	2_0.gif
3	1	1	0	1	0.41	1	1	1_0.gif
4	1	4	0	4	0.553	4	1	4_0.gif
5	1	1	0	1	0.557	1	1	1_0.gif
6	1	2	0	2	0.422	2	1	2_0.gif
7	1	1	0	1	0.54	1	1	1_0.gif
8	1	2	0	2	0.489	2	1	2_0.gif
9	1	3	0	3	0.572	3	1	3_0.gif
10	1	1	0	1	0.547	1	1	1_0.gif
11	1	3	0	3	0.596	3	1	3_0.gif
12	1	4	0	4	0.84	4	1	4_0.gif
13	1	1	0	4	0.004	1	0	1_0.gif
14	1	3	0	3	0.479	3	1	3_0.gif
15	1	1	0	1	0.428	1	1	1_0.gif
16	1	4	2	6	0	3	n/a	4_2.gif
17	1	3	2	1	0.872	1	1	3_2.gif
18	1	1	2	4	0.287	4	1	1_2.gif
19	1	4	2	3	0.165	3	1	4_2.gif
20	1	2	2	1	0.117	1	1	2_2.gif
21	1	1	2	4	0.058	4	1	1_2.gif
22	1	3	2	2	0.003	2	1	3_2.gif
23	1	1	2	1	0.155	1	1	1_2.gif
24	1	3	2	3	0.384	3	1	3_2.gif
25	1	1	2	1	0.259	1	1	1_2.gif
26	1	4	2	3	0.341	3	1	4_2.gif
27	1	1	2	1	0.216	1	1	1_2.gif
28	1	3	2	4	0.032	4	1	3_2.gif
29	1	4	2	6	0	1	n/a	4_2.gif
30	1	3	2	3	0.13	3	1	3_2.gif
31	1	2	2	4	0.059	4	1	2_2.gif
32	1	4	0	3	0.003	4	0	4_0.gif
33	1	3	0	4	0.003	3	0	3_0.gif
34	1	1	0	1	0.574	1	1	1_0.gif
35	1	2	0	2	0.391	2	1	2_0.gif
36	1	1	0	1	0.381	1	1	1_0.gif
37	1	2	0	2	0.323	2	1	2_0.gif
38	1	1	0	1	0.395	1	1	1_0.gif
39	1	4	0	4	0.611	4	1	4_0.gif
40	1	1	0	1	0.535	1	1	1_0.gif
41	1	3	0	6	0	3	n/a	3_0.gif
42	1	4	0	4	0.575	4	1	4_0.gif
43	1	1	0	1	0.498	1	1	1_0.gif
44	1	2	0	2	0.572	2	1	2_0.gif
45	1	4	0	4	0.526	4	1	4_0.gif
46	1	3	0	3	0.497	3	1	3_0.gif
47	1	4	0	4	0.593	4	1	4_0.gif
48.001	1	2	2	6	0	3	n/a	2_2.gif
49.001	1	1	2	4	0.247	4	1	1_2.gif
50.001	1	2	2	2	0.348	2	1	2_2.gif
51.001	1	1	2	1	0.321	1	1	1_2.gif
52.001	1	2	2	2	0.233	2	1	2_2.gif
53.001	1	3	2	1	0.306	1	1	3_2.gif
54.001	1	2	2	2	0.325	2	1	2_2.gif
55.001	1	3	2	3	0.216	3	1	3_2.gif
56.001	1	4	2	2	0.268	2	1	4_2.gif
57.001	1	2	2	3	0.2	3	1	2_2.gif
58.001	1	4	2	4	0.191	4	1	4_2.gif
59.001	1	1	2	2	0.202	2	1	1_2.gif
60.001	1	2	2	4	0.224	4	1	2_2.gif
61.001	1	1	2	1	0.251	1	1	1_2.gif
62.001	1	3	2	2	0.246	2	1	3_2.gif
63.001	1	1	2	1	0.2	1	1	1_2.gif
64.002	1	2	0	3	0.22	2	0	2_0.gif
65.002	1	4	0	2	0.003	4	0	4_0.gif
66.002	1	3	0	3	0.404	3	1	3_0.gif
67.002	1	4	0	4	0.533	4	1	4_0.gif
68.002	1	3	0	3	0.425	3	1	3_0.gif
69.002	1	4	0	4	0.425	4	1	4_0.gif
70.002	1	1	0	1	0.546	1	1	1_0.gif
71.002	1	2	0	2	0.348	2	1	2_0.gif
72.002	1	4	0	4	0.302	4	1	4_0.gif
73.002	1	3	0	3	0.417	3	1	3_0.gif
74.002	1	4	0	4	0.457	4	1	4_0.gif
75.002	1	2	0	2	0.342	2	1	2_0.gif
76.002	1	1	0	1	0.441	1	1	1_0.gif
77.002	1	4	0	4	0.296	4	1	4_0.gif
78.002	1	1	0	1	0.325	1	1	1_0.gif
79.002	1	4	0	4	0.434	4	1	4_0.gif
80.002	1	3	2	6	0	1	n/a	3_2.gif
81.002	1	4	2	4	0.243	4	1	4_2.gif
82.002	1	2	2	3	0.34	3	1	2_2.gif
83.002	1	3	2	4	0.323	4	1	3_2.gif
84.002	1	2	2	2	0.145	2	1	2_2.gif
85.002	1	3	2	3	0.135	3	1	3_2.gif
86.002	1	1	2	2	0.349	2	1	1_2.gif
87.002	1	2	2	3	0.268	3	1	2_2.gif
88.002	1	1	2	1	0.278	1	1	1_2.gif
89.002	1	2	2	2	0.248	2	1	2_2.gif
90.002	1	1	2	1	0.239	1	1	1_2.gif
91.002	1	3	2	2	0.421	2	1	3_2.gif
92.002	1	4	2	1	0.275	1	1	4_2.gif
93.002	1	1	2	3	0.274	3	1	1_2.gif
94.002	1	2	2	4	0.131	4	1	2_2.gif
95.002	1	1	2	1	0.372	1	1	1_2.gif
96.002	1	4	0	4	0.666	4	1	4_0.gif
97.002	1	3	0	3	0.603	3	1	3_0.gif
98.002	1	4	0	4	0.54	4	1	4_0.gif
99.002	1	1	0	1	0.524	1	1	1_0.gif
100.002	1	2	0	2	0.498	2	1	2_0.gif
101.002	1	3	0	3	0.397	3	1	3_0.gif
102.002	1	1	0	1	0.506	1	1	1_0.gif
103.002	1	4	0	4	0.482	4	1	4_0.gif
104.002	1	1	0	1	0.507	1	1	1_0.gif
105.002	1	3	0	3	0.422	3	1	3_0.gif
106.002	1	1	0	1	0.444	1	1	1_0.gif
107.002	1	2	0	2	0.416	2	1	2_0.gif
108.002	1	4	0	4	0.492	4	1	4_0.gif
109.002	1	2	0	2	0.403	2	1	2_0.gif
110.002	1	3	0	3	0.409	3	1	3_0.gif
111.002	1	2	0	2	0.459	2	1	2_0.gif
112.003	1	3	2	6	0	3	n/a	3_2.gif
113.003	1	1	2	3	0.633	2	0	1_2.gif
114.003	1	3	2	1	0.549	3	0	3_2.gif
115.003	1	4	2	3	0.487	1	0	4_2.gif
116.003	1	1	2	4	0.719	3	0	1_2.gif
117.003	1	4	2	1	0.579	4	0	4_2.gif
118.003	1	1	2	4	0.482	1	0	1_2.gif
119.003	1	3	2	1	0.598	4	0	3_2.gif
120.003	1	4	2	3	0.553	1	0	4_2.gif
121.003	1	1	2	4	0.768	3	0	1_2.gif
122.003	1	3	2	1	0.772	4	0	3_2.gif
123.003	1	1	2	3	0.558	1	0	1_2.gif
124.003	1	4	2	1	0.727	3	0	4_2.gif
125.003	1	1	2	4	0.577	1	0	1_2.gif
126.003	1	2	2	1	0.562	4	0	2_2.gif
127.003	1	1	2	2	0.692	1	0	1_2.gif
128.003	1	4	0	4	0.748	4	1	4_0.gif
129.003	1	3	0	3	0.59	3	1	3_0.gif
130.003	1	1	0	1	0.534	1	1	1_0.gif
131.003	1	4	0	4	0.512	4	1	4_0.gif
132.003	1	2	0	2	0.491	2	1	2_0.gif
133.003	1	3	0	3	0.524	3	1	3_0.gif
134.003	1	4	0	4	0.541	4	1	4_0.gif
135.003	1	1	0	1	0.477	1	1	1_0.gif
136.003	1	3	0	3	0.455	3	1	3_0.gif
137.003	1	2	0	2	0.471	2	1	2_0.gif
138.003	1	3	0	3	0.437	3	1	3_0.gif
139.003	1	1	0	1	0.579	1	1	1_0.gif
140.003	1	3	0	3	0.589	3	1	3_0.gif
141.003	1	1	0	1	0.628	1	1	1_0.gif
142.003	1	2	0	2	0.593	2	1	2_0.gif
143.003	1	3	0	3	0.432	3	1	3_0.gif
144.003	1	1	2	6	0	2	n/a	1_2.gif
145.003	1	4	2	1	0.59	3	0	4_2.gif
146.003	1	3	2	4	0.546	1	0	3_2.gif
147.003	1	4	2	3	0.591	4	0	4_2.gif
148.003	1	1	2	4	0.631	3	0	1_2.gif
149.003	1	4	2	1	0.707	4	0	4_2.gif
150.003	1	2	2	4	0.783	1	0	2_2.gif
151.003	1	3	2	2	0.728	4	0	3_2.gif
152.003	1	1	2	6	0	2	n/a	1_2.gif
153.003	1	4	2	3	0.148	3	1	4_2.gif
154.003	1	2	2	1	0.064	1	1	2_2.gif
155.003	1	4	2	4	0.107	4	1	4_2.gif
156.003	1	2	2	2	0.343	2	1	2_2.gif
157.003	1	4	2	4	0.227	4	1	4_2.gif
158.003	1	1	2	2	0.316	2	1	1_2.gif
159.003	1	4	2	4	0.211	4	1	4_2.gif
160.004	1	3	0	3	0.637	3	1	3_0.gif
161.004	1	1	0	1	0.526	1	1	1_0.gif
162.004	1	4	0	4	0.457	4	1	4_0.gif
163.004	1	2	0	2	0.415	2	1	2_0.gif
164.004	1	1	0	1	0.422	1	1	1_0.gif
165.004	1	3	0	3	0.377	3	1	3_0.gif
166.004	1	2	0	2	0.411	2	1	2_0.gif
167.004	1	3	0	3	0.315	3	1	3_0.gif
168.004	1	4	0	4	0.408	4	1	4_0.gif
169.004	1	2	0	2	0.375	2	1	2_0.gif
170.004	1	4	0	4	0.601	4	1	4_0.gif
171.004	1	1	0	1	0.409	1	1	1_0.gif
172.004	1	3	0	3	0.42	3	1	3_0.gif
173.004	1	1	0	1	0.457	1	1	1_0.gif
174.004	1	3	0	3	0.451	3	1	3_0.gif
175.004	1	4	0	4	0.81	4	1	4_0.gif
176.004	1	1	2	6	0	3	n/a	1_2.gif
177.004	1	2	2	1	0.491	4	0	2_2.gif
178.004	1	4	2	2	0.534	1	0	4_2.gif
179.004	1	1	2	4	0.424	2	0	1_2.gif
180.004	1	4	2	1	0.626	4	0	4_2.gif
181.004	1	3	2	4	0.545	1	0	3_2.gif
182.004	1	4	2	3	0.65	4	0	4_2.gif
183.004	1	2	2	4	0.715	3	0	2_2.gif
184.004	1	4	2	2	0.592	4	0	4_2.gif
185.004	1	3	2	4	0.624	2	0	3_2.gif
186.004	1	4	2	3	0.602	4	0	4_2.gif
187.004	1	1	2	4	0.662	3	0	1_2.gif
188.004	1	3	2	6	0	4	n/a	3_2.gif
189.004	1	2	2	1	0.196	1	1	2_2.gif
190.004	1	4	2	3	0.183	3	1	4_2.gif
191.004	1	3	2	2	0.236	2	1	3_2.gif
192.005	1	1	0	4	0.287	1	0	1_0.gif
193.005	1	3	0	3	0.396	3	1	3_0.gif
194.005	1	2	0	2	0.383	2	1	2_0.gif
195.005	1	1	0	1	0.44	1	1	1_0.gif
196.005	1	4	0	4	0.53	4	1	4_0.gif
197.005	1	1	0	1	0.401	1	1	1_0.gif
198.005	1	2	0	2	0.314	2	1	2_0.gif
199.005	1	1	0	1	0.341	1	1	1_0.gif
200.005	1	2	0	2	0.397	2	1	2_0.gif
201.005	1	3	0	3	0.463	3	1	3_0.gif
202.005	1	1	0	1	0.49	1	1	1_0.gif
203.005	1	3	0	3	0.435	3	1	3_0.gif
204.005	1	4	0	4	0.599	4	1	4_0.gif
205.005	1	1	0	1	0.434	1	1	1_0.gif
206.005	1	3	0	3	0.363	3	1	3_0.gif
207.005	1	1	0	1	0.436	1	1	1_0.gif
208.005	1	4	2	6	0	3	n/a	4_2.gif
209.005	1	3	2	4	0.711	1	0	3_2.gif
210.005	1	1	2	3	0.916	4	0	1_2.gif
211.005	1	4	2	3	0.003	3	1	4_2.gif
212.005	1	2	2	1	0.003	1	1	2_2.gif
213.005	1	1	2	4	0.14	4	1	1_2.gif
214.005	1	3	2	2	0.173	2	1	3_2.gif
215.005	1	1	2	1	0.485	1	1	1_2.gif
216.005	1	3	2	6	0	3	n/a	3_2.gif
217.005	1	1	2	3	0.03	1	0	1_2.gif
218.005	1	4	2	1	0.174	3	0	4_2.gif
219.005	1	1	2	4	0.57	1	0	1_2.gif
220.005	1	3	2	1	0.609	4	0	3_2.gif
221.005	1	4	2	3	0.55	1	0	4_2.gif
222.005	1	3	2	4	0.707	3	0	3_2.gif
223.005	1	2	2	6	0	4	n/a	2_2.gif
224.005	1	4	0	3	0.082	4	0	4_0.gif
225.005	1	3	0	3	0.366	3	1	3_0.gif
226.005	1	1	0	1	0.467	1	1	1_0.gif
227.005	1	2	0	2	0.339	2	1	2_0.gif
228.005	1	1	0	1	0.394	1	1	1_0.gif
229.005	1	2	0	2	0.375	2	1	2_0.gif
230.005	1	1	0	1	0.315	1	1	1_0.gif
231.005	1	4	0	4	0.472	4	1	4_0.gif
232.005	1	1	0	1	0.291	1	1	1_0.gif
233.005	1	3	0	3	0.371	3	1	3_0.gif
234.005	1	4	0	4	0.487	4	1	4_0.gif
235.005	1	1	0	1	0.354	1	1	1_0.gif
236.005	1	2	0	2	0.279	2	1	2_0.gif
237.005	1	4	0	4	0.464	4	1	4_0.gif
238.005	1	3	0	3	0.35	3	1	3_0.gif
239.005	1	4	0	4	0.452	4	1	4_0.gif
240.006	1	2	2	6	0	3	n/a	2_2.gif
241.006	1	1	2	2	0.585	4	0	1_2.gif
242.006	1	2	2	1	0.715	2	0	2_2.gif
243.006	1	1	2	2	0.442	1	0	1_2.gif
244.006	1	2	2	1	0.607	2	0	2_2.gif
245.006	1	3	2	2	0.838	1	0	3_2.gif
246.006	1	2	2	6	0	2	n/a	2_2.gif
247.006	1	3	2	3	0.121	3	1	3_2.gif
248.006	1	4	2	2	0.594	2	1	4_2.gif
249.006	1	2	2	4	0.434	3	0	2_2.gif
250.006	1	4	2	2	0.369	4	0	4_2.gif
251.006	1	1	2	4	0.79	2	0	1_2.gif
252.006	1	2	2	1	0.547	4	0	2_2.gif
253.006	1	1	2	2	0.645	1	0	1_2.gif
254.006	1	3	2	1	0.675	2	0	3_2.gif
255.006	1	1	2	3	0.635	1	0	1_2.gif
