onset	duration	nback_display	trial_type	response	response_time	correct_response	correct	stim_file
0	1	1	0	1	0.616	1	1	1_0.gif
1	1	4	0	1	0.013	4	0	4_0.gif
2	1	2	0	2	0.471	2	1	2_0.gif
3	1	1	0	2	0.013	1	0	1_0.gif
4	1	4	0	4	0.482	4	1	4_0.gif
5	1	1	0	1	0.502	1	1	1_0.gif
6	1	2	0	2	0.482	2	1	2_0.gif
7	1	1	0	2	0.013	1	0	1_0.gif
8	1	3	0	3	0.466	3	1	3_0.gif
9	1	4	0	4	0.38	4	1	4_0.gif
10	1	2	0	2	0.392	2	1	2_0.gif
11	1	3	0	3	0.585	3	1	3_0.gif
12	1	1	0	1	0.629	1	1	1_0.gif
13	1	3	0	3	0.54	3	1	3_0.gif
14	1	4	0	4	0.48	4	1	4_0.gif
15	1	3	0	3	0.55	3	1	3_0.gif
16	1	4	2	6	0	4	n/a	4_2.gif
17	1	2	2	6	0	3	n/a	2_2.gif
18	1	1	2	4	0.301	4	1	1_2.gif
19	1	4	2	2	0.272	2	1	4_2.gif
20	1	1	2	1	0.285	1	1	1_2.gif
21	1	3	2	4	0.256	4	1	3_2.gif
22	1	1	2	1	0.223	1	1	1_2.gif
23	1	3	2	3	0.157	3	1	3_2.gif
24.003	1	2	2	1	0.199	1	1	2_2.gif
25.003	1	4	2	3	0.232	3	1	4_2.gif
26.003	1	1	2	2	0.287	2	1	1_2.gif
27.003	1	3	2	4	0.278	4	1	3_2.gif
28.003	1	1	2	1	0.359	1	1	1_2.gif
29.003	1	4	2	3	0.424	3	1	4_2.gif
30.003	1	1	2	1	0.602	1	1	1_2.gif
31.003	1	3	2	1	0.015	4	0	3_2.gif
32.004	1	1	0	4	0.014	1	0	1_0.gif
33.004	1	2	0	2	0.655	2	1	2_0.gif
34.004	1	4	0	2	0.014	4	0	4_0.gif
35.004	1	3	0	3	0.476	3	1	3_0.gif
36.004	1	1	0	1	0.512	1	1	1_0.gif
37.004	1	2	0	2	0.514	2	1	2_0.gif
38.004	1	4	0	4	0.48	4	1	4_0.gif
39.004	1	2	0	2	0.49	2	1	2_0.gif
40.004	1	4	0	2	0.015	4	0	4_0.gif
41.004	1	2	0	2	0.517	2	1	2_0.gif
42.004	1	3	0	2	0.014	3	0	3_0.gif
43.004	1	1	0	3	0.014	1	0	1_0.gif
44.004	1	3	0	1	0.014	3	0	3_0.gif
45.004	1	4	0	3	0.015	4	0	4_0.gif
46.004	1	2	0	4	0.014	2	0	2_0.gif
47.004	1	1	0	2	0.024	1	0	1_0.gif
48.005	1	3	2	1	0.013	2	0	3_2.gif
49.005	1	1	2	6	0	1	n/a	1_2.gif
50.005	1	2	2	3	0.214	3	1	2_2.gif
51.005	1	1	2	1	0.289	1	1	1_2.gif
52.005	1	2	2	2	0.218	2	1	2_2.gif
53.005	1	1	2	1	0.253	1	1	1_2.gif
54.005	1	4	2	2	0.226	2	1	4_2.gif
55.005	1	2	2	1	0.275	1	1	2_2.gif
56.005	1	4	2	4	0.225	4	1	4_2.gif
57.005	1	3	2	2	0.294	2	1	3_2.gif
58.005	1	2	2	4	0.324	4	1	2_2.gif
59.005	1	1	2	3	0.203	3	1	1_2.gif
60.005	1	4	2	2	0.294	2	1	4_2.gif
61.005	1	1	2	1	0.344	1	1	1_2.gif
62.005	1	2	2	4	0.354	4	1	2_2.gif
63.005	1	1	2	1	0.346	1	1	1_2.gif
64.005	1	3	0	2	0.388	3	0	3_0.gif
65.005	1	4	0	4	0.628	4	1	4_0.gif
66.005	1	2	0	4	0.014	2	0	2_0.gif
67.005	1	4	0	2	0.015	4	0	4_0.gif
68.005	1	3	0	4	0.014	3	0	3_0.gif
69.005	1	4	0	4	0.467	4	1	4_0.gif
70.005	1	1	0	4	0.014	1	0	1_0.gif
71.005	1	2	0	1	0.014	2	0	2_0.gif
72.005	1	4	0	2	0.014	4	0	4_0.gif
73.005	1	3	0	4	0.014	3	0	3_0.gif
74.005	1	4	0	3	0.014	4	0	4_0.gif
75.005	1	2	0	4	0.016	2	0	2_0.gif
76.005	1	1	0	2	0.014	1	0	1_0.gif
77.005	1	3	0	1	0.014	3	0	3_0.gif
78.005	1	4	0	4	0.382	4	1	4_0.gif
79.005	1	2	0	2	0.423	2	1	2_0.gif
80.006	1	4	2	6	0	4	n/a	4_2.gif
81.006	1	3	2	6	0	2	n/a	3_2.gif
82.006	1	4	2	4	0.08	4	1	4_2.gif
83.006	1	2	2	3	0.182	3	1	2_2.gif
84.006	1	3	2	4	0.037	4	1	3_2.gif
85.006	1	2	2	2	0.115	2	1	2_2.gif
86.006	1	3	2	3	0.095	3	1	3_2.gif
87.006	1	1	2	2	0.217	2	1	1_2.gif
88.006	1	2	2	3	0.284	3	1	2_2.gif
89.006	1	1	2	1	0.23	1	1	1_2.gif
90.006	1	2	2	2	0.243	2	1	2_2.gif
91.006	1	3	2	1	0.255	1	1	3_2.gif
92.006	1	1	2	2	0.282	2	1	1_2.gif
93.006	1	4	2	3	0.268	3	1	4_2.gif
94.006	1	2	2	1	0.308	1	1	2_2.gif
95.006	1	1	2	4	0.233	4	1	1_2.gif
96.007	1	4	0	2	0.264	4	0	4_0.gif
97.007	1	2	0	4	0.05	2	0	2_0.gif
98.007	1	3	0	2	0.022	3	0	3_0.gif
99.007	1	4	0	3	0.014	4	0	4_0.gif
100.007	1	2	0	4	0.013	2	0	2_0.gif
101.007	1	3	0	2	0.013	3	0	3_0.gif
102.007	1	4	0	3	0.014	4	0	4_0.gif
103.007	1	2	0	4	0.013	2	0	2_0.gif
104.007	1	3	0	2	0.013	3	0	3_0.gif
105.007	1	1	0	3	0.025	1	0	1_0.gif
106.007	1	4	0	4	0.485	4	1	4_0.gif
107.007	1	3	0	3	0.507	3	1	3_0.gif
108.007	1	1	0	4	0.471	1	0	1_0.gif
109.007	1	3	0	3	0.759	3	1	3_0.gif
110.007	1	1	0	3	0.013	1	0	1_0.gif
111.007	1	2	0	2	0.467	2	1	2_0.gif
112.007	1	4	2	6	0	1	n/a	4_2.gif
113.007	1	2	2	6	0	2	n/a	2_2.gif
114.007	1	3	2	4	0.264	4	1	3_2.gif
115.007	1	1	2	2	0.202	2	1	1_2.gif
116.007	1	4	2	3	0.284	3	1	4_2.gif
117.007	1	3	2	1	0.257	1	1	3_2.gif
118.007	1	4	2	4	0.183	4	1	4_2.gif
119.007	1	1	2	3	0.08	3	1	1_2.gif
120.007	1	4	2	4	0.014	4	1	4_2.gif
121.007	1	1	2	1	0.014	1	1	1_2.gif
122.007	1	2	2	4	0.013	4	1	2_2.gif
123.007	1	4	2	1	0.015	1	1	4_2.gif
124.007	1	2	2	2	0.014	2	1	2_2.gif
125.007	1	1	2	4	0.098	4	1	1_2.gif
126.007	1	3	2	2	0.471	2	1	3_2.gif
127.007	1	2	2	1	0.421	1	1	2_2.gif
128.008	1	1	0	3	0.526	1	0	1_0.gif
129.008	1	3	0	1	0.109	3	0	3_0.gif
130.008	1	1	0	3	0.014	1	0	1_0.gif
131.008	1	2	0	1	0.014	2	0	2_0.gif
132.008	1	1	0	2	0.013	1	0	1_0.gif
133.008	1	4	0	4	0.433	4	1	4_0.gif
134.008	1	3	0	3	0.484	3	1	3_0.gif
135.008	1	1	0	1	0.351	1	1	1_0.gif
136.008	1	3	0	3	0.411	3	1	3_0.gif
137.008	1	2	0	2	0.468	2	1	2_0.gif
138.008	1	3	0	2	0.014	3	0	3_0.gif
139.008	1	2	0	2	0.463	2	1	2_0.gif
140.008	1	3	0	3	0.42	3	1	3_0.gif
141.008	1	2	0	2	0.443	2	1	2_0.gif
142.008	1	3	0	3	0.427	3	1	3_0.gif
143.008	1	4	0	4	0.39	4	1	4_0.gif
144.008	1	1	2	1	0.58	3	0	1_2.gif
145.008	1	3	2	6	0	4	n/a	3_2.gif
146.008	1	1	2	1	0.284	1	1	1_2.gif
147.008	1	2	2	3	0.273	3	1	2_2.gif
148.008	1	3	2	1	0.203	1	1	3_2.gif
149.008	1	4	2	3	0.067	2	0	4_2.gif
150.008	1	3	2	1	0.135	3	0	3_2.gif
151.008	1	1	2	2	0.014	4	0	1_2.gif
152.008	1	3	2	3	0.015	3	1	3_2.gif
153.008	1	2	2	1	0.589	1	1	2_2.gif
154.008	1	1	2	3	0.302	3	1	1_2.gif
155.008	1	3	2	2	0.292	2	1	3_2.gif
156.008	1	1	2	1	0.292	1	1	1_2.gif
157.008	1	3	2	3	0.11	3	1	3_2.gif
158.008	1	4	2	3	0.364	1	0	4_2.gif
159.008	1	1	2	1	0.877	3	0	1_2.gif
160.009	1	2	0	1	0.013	2	0	2_0.gif
161.009	1	4	0	2	0.014	4	0	4_0.gif
162.009	1	1	0	2	0.013	1	0	1_0.gif
163.009	1	2	0	2	0.45	2	1	2_0.gif
164.009	1	1	0	2	0.013	1	0	1_0.gif
165.009	1	2	0	2	0.396	2	1	2_0.gif
166.009	1	4	0	4	0.358	4	1	4_0.gif
167.009	1	3	0	3	0.458	3	1	3_0.gif
168.009	1	2	0	2	0.437	2	1	2_0.gif
169.009	1	4	0	4	0.428	4	1	4_0.gif
170.009	1	3	0	1	0.37	3	0	3_0.gif
171.009	1	1	0	1	0.449	1	1	1_0.gif
172.009	1	2	0	2	0.362	2	1	2_0.gif
173.009	1	1	0	1	0.439	1	1	1_0.gif
174.009	1	2	0	2	0.376	2	1	2_0.gif
175.009	1	3	0	3	0.496	3	1	3_0.gif
176.009	1	2	2	2	0.773	2	1	2_2.gif
177.009	1	1	2	2	0.014	3	0	1_2.gif
178.009	1	4	2	2	0.414	2	1	4_2.gif
179.009	1	1	2	1	0.317	1	1	1_2.gif
180.009	1	2	2	4	0.128	4	1	2_2.gif
181.009	1	3	2	1	0.195	1	1	3_2.gif
182.009	1	4	2	2	0.166	2	1	4_2.gif
183.009	1	2	2	3	0.163	3	1	2_2.gif
184.009	1	4	2	4	0.014	4	1	4_2.gif
185.009	1	3	2	2	0.014	2	1	3_2.gif
186.009	1	4	2	4	0.265	4	1	4_2.gif
187.009	1	3	2	3	0.046	3	1	3_2.gif
188.009	1	4	2	4	0.323	4	1	4_2.gif
189.009	1	2	2	3	0.832	3	1	2_2.gif
190.009	1	4	2	3	0.014	4	0	4_2.gif
191.009	1	2	2	4	0.013	2	0	2_2.gif
192.01	1	1	0	2	0.367	1	0	1_0.gif
193.01	1	4	0	1	0.014	4	0	4_0.gif
194.01	1	2	0	4	0.013	2	0	2_0.gif
195.01	1	1	0	2	0.013	1	0	1_0.gif
196.01	1	4	0	4	0.479	4	1	4_0.gif
197.01	1	1	0	1	0.384	1	1	1_0.gif
198.01	1	2	0	2	0.485	2	1	2_0.gif
199.01	1	1	0	2	0.014	1	0	1_0.gif
200.01	1	3	0	3	0.499	3	1	3_0.gif
201.01	1	4	0	4	0.459	4	1	4_0.gif
202.01	1	2	0	2	0.537	2	1	2_0.gif
203.01	1	3	0	3	0.659	3	1	3_0.gif
204.01	1	1	0	1	0.703	1	1	1_0.gif
205.01	1	3	0	3	0.588	3	1	3_0.gif
206.01	1	4	0	4	0.522	4	1	4_0.gif
207.01	1	3	0	3	0.637	3	1	3_0.gif
208.01	1	4	2	6	0	4	n/a	4_2.gif
209.01	1	2	2	6	0	3	n/a	2_2.gif
210.01	1	1	2	4	0.054	4	1	1_2.gif
211.01	1	4	2	2	0.126	2	1	4_2.gif
212.01	1	1	2	1	0.014	1	1	1_2.gif
213.01	1	3	2	4	0.015	4	1	3_2.gif
214.01	1	1	2	1	0.016	1	1	1_2.gif
215.01	1	3	2	3	0.014	3	1	3_2.gif
216.01	1	2	2	1	0.014	1	1	2_2.gif
217.01	1	4	2	3	0.014	3	1	4_2.gif
218.01	1	1	2	2	0.17	2	1	1_2.gif
219.011	1	3	2	4	0.17	4	1	3_2.gif
220.011	1	1	2	1	0.183	1	1	1_2.gif
221.011	1	4	2	3	0.195	3	1	4_2.gif
222.011	1	1	2	1	0.263	1	1	1_2.gif
223.011	1	3	2	4	0.288	4	1	3_2.gif
224.011	1	1	0	1	0.284	1	1	1_0.gif
225.011	1	2	0	2	0.415	2	1	2_0.gif
226.011	1	4	0	2	0.014	4	0	4_0.gif
227.011	1	3	0	3	0.358	3	1	3_0.gif
228.011	1	1	0	1	0.391	1	1	1_0.gif
229.011	1	2	0	2	0.395	2	1	2_0.gif
230.011	1	4	0	2	0.014	4	0	4_0.gif
231.011	1	2	0	2	0.453	2	1	2_0.gif
232.011	1	4	0	4	0.502	4	1	4_0.gif
233.011	1	2	0	2	0.479	2	1	2_0.gif
234.011	1	3	0	3	0.476	3	1	3_0.gif
235.011	1	1	0	1	0.478	1	1	1_0.gif
236.011	1	3	0	3	0.543	3	1	3_0.gif
237.011	1	4	0	4	0.471	4	1	4_0.gif
238.011	1	2	0	2	0.578	2	1	2_0.gif
239.011	1	1	0	1	0.619	1	1	1_0.gif
240.011	1	3	2	6	0	2	n/a	3_2.gif
241.011	1	1	2	6	0	1	n/a	1_2.gif
242.011	1	2	2	3	0.089	3	1	2_2.gif
243.011	1	1	2	1	0.035	1	1	1_2.gif
244.011	1	2	2	2	0.014	2	1	2_2.gif
245.011	1	1	2	1	0.015	1	1	1_2.gif
246.011	1	4	2	2	0.014	2	1	4_2.gif
247.012	1	2	2	1	0.013	1	1	2_2.gif
248.012	1	4	2	4	0.016	4	1	4_2.gif
249.012	1	3	2	2	0.013	2	1	3_2.gif
250.012	1	2	2	4	0.013	4	1	2_2.gif
251.012	1	1	2	3	0.013	3	1	1_2.gif
252.012	1	4	2	2	0.014	2	1	4_2.gif
253.012	1	1	2	1	0.013	1	1	1_2.gif
254.012	1	2	2	4	0.013	4	1	2_2.gif
255.012	1	1	2	1	0.1	1	1	1_2.gif
