onset	duration	nback_display	trial_type	response	response_time	correct_response	correct	stim_file
0	1	1	0	1	0.564	1	1	1_0.gif
1	1	2	0	2	0.378	2	1	2_0.gif
2	1	1	0	1	0.607	1	1	1_0.gif
3	1	3	0	3	0.784	3	1	3_0.gif
4	1	1	0	3	0.003	1	0	1_0.gif
5	1	2	0	2	0.448	2	1	2_0.gif
6	1	3	0	3	0.276	3	1	3_0.gif
7	1	1	0	1	0.377	1	1	1_0.gif
8	1	2	0	2	0.332	2	1	2_0.gif
9	1	3	0	3	0.289	3	1	3_0.gif
10	1	4	0	4	0.641	4	1	4_0.gif
11	1	3	0	3	0.9	3	1	3_0.gif
12	1	4	0	3	0.003	4	0	4_0.gif
13	1	3	0	3	0.402	3	1	3_0.gif
14	1	4	0	4	0.415	4	1	4_0.gif
15	1	2	0	6	0	2	n/a	2_0.gif
16	1	1	2	2	0.252	4	0	1_2.gif
17	1	4	2	6	0	2	n/a	4_2.gif
18	1	1	2	1	0.543	1	1	1_2.gif
19	1	2	2	2	0.096	4	0	2_2.gif
20	1	1	2	6	0	1	n/a	1_2.gif
21	1	2	2	6	0	2	n/a	2_2.gif
22	1	3	2	1	0.831	1	1	3_2.gif
23	1	4	2	1	0.003	2	0	4_2.gif
24	1	1	2	2	0.263	3	0	1_2.gif
25	1	3	2	6	0	4	n/a	3_2.gif
26	1	2	2	6	0	1	n/a	2_2.gif
27	1	4	2	2	0.959	3	0	4_2.gif
28	1	1	2	2	0.003	2	1	1_2.gif
29	1	2	2	3	0.04	4	0	2_2.gif
30	1	4	2	2	0.627	1	0	4_2.gif
31	1	3	2	6	0	2	n/a	3_2.gif
32	1	2	0	2	0.916	2	1	2_0.gif
33	1	1	0	2	0.003	1	0	1_0.gif
34	1	2	0	2	0.501	2	1	2_0.gif
35	1	1	0	1	0.376	1	1	1_0.gif
36	1	2	0	2	0.376	2	1	2_0.gif
37	1	1	0	1	0.348	1	1	1_0.gif
38	1	4	0	4	0.784	4	1	4_0.gif
39	1	1	0	4	0.004	1	0	1_0.gif
40	1	3	0	3	0.766	3	1	3_0.gif
41	1	4	0	3	0.003	4	0	4_0.gif
42	1	2	0	2	0.686	2	1	2_0.gif
43	1	3	0	3	0.828	3	1	3_0.gif
44	1	4	0	3	0.003	4	0	4_0.gif
45	1	1	0	1	0.354	1	1	1_0.gif
46	1	4	0	4	0.69	4	1	4_0.gif
47	1	1	0	1	0.415	1	1	1_0.gif
48	1	4	2	6	0	4	n/a	4_2.gif
49	1	3	2	6	0	1	n/a	3_2.gif
50	1	1	2	4	0.531	4	1	1_2.gif
51	1	2	2	3	0.004	3	1	2_2.gif
52	1	1	2	6	0	1	n/a	1_2.gif
53	1	4	2	6	0	2	n/a	4_2.gif
54	1	2	2	1	0.707	1	1	2_2.gif
55	1	4	2	4	0.249	4	1	4_2.gif
56	1	3	2	4	0.883	2	0	3_2.gif
57	1	4	2	4	0.004	4	1	4_2.gif
58	1	2	2	6	0	3	n/a	2_2.gif
59	1	1	2	6	0	4	n/a	1_2.gif
60	1	3	2	6	0	2	n/a	3_2.gif
61.001	1	1	2	1	0.695	1	1	1_2.gif
62.001	1	2	2	3	0.205	3	1	2_2.gif
63.001	1	1	2	6	0	1	n/a	1_2.gif
64.001	1	3	0	2	0.72	3	0	3_0.gif
65.001	1	2	0	1	0.163	2	0	2_0.gif
66.001	1	4	0	4	0.748	4	1	4_0.gif
67.001	1	2	0	2	0.456	2	1	2_0.gif
68.001	1	4	0	4	0.644	4	1	4_0.gif
69.001	1	3	0	3	0.638	3	1	3_0.gif
70.001	1	2	0	2	0.615	2	1	2_0.gif
71.001	1	3	0	4	0.564	3	0	3_0.gif
72.001	1	4	0	6	0	4	n/a	4_0.gif
73.001	1	1	0	4	0.263	1	0	1_0.gif
74.001	1	4	0	1	0.106	4	0	4_0.gif
75.001	1	3	0	3	0.678	3	1	3_0.gif
76.001	1	2	0	2	0.654	2	1	2_0.gif
77.001	1	3	0	3	0.806	3	1	3_0.gif
78.001	1	4	0	3	0.003	4	0	4_0.gif
79.001	1	1	0	2	0.933	1	0	1_0.gif
80.001	1	4	2	2	0.003	4	0	4_2.gif
81.001	1	2	2	6	0	1	n/a	2_2.gif
82.001	1	3	2	1	0.895	4	0	3_2.gif
83.001	1	1	2	1	0.003	2	0	1_2.gif
84.001	1	3	2	3	0.115	3	1	3_2.gif
85.001	1	1	2	4	0.823	1	0	1_2.gif
86.001	1	3	2	4	0.003	3	0	3_2.gif
87.001	1	4	2	3	0.339	1	0	4_2.gif
88.001	1	1	2	1	0.129	3	0	1_2.gif
89.001	1	4	2	4	0.789	4	1	4_2.gif
90.001	1	3	2	4	0.003	1	0	3_2.gif
91.001	1	2	2	4	0.514	4	1	2_2.gif
92.001	1	4	2	6	0	3	n/a	4_2.gif
93.001	1	1	2	6	0	2	n/a	1_2.gif
94.001	1	4	2	6	0	4	n/a	4_2.gif
95.001	1	3	2	2	0.858	1	0	3_2.gif
96.001	1	4	0	2	0.003	4	0	4_0.gif
97.001	1	3	0	3	0.874	3	1	3_0.gif
98.001	1	2	0	3	0.003	2	0	2_0.gif
99.001	1	3	0	3	0.699	3	1	3_0.gif
100.001	1	1	0	1	0.886	1	1	1_0.gif
101.001	1	3	0	1	0.003	3	0	3_0.gif
102.001	1	4	0	3	0.003	4	0	4_0.gif
103.001	1	1	0	6	0	1	n/a	1_0.gif
104.001	1	3	0	1	0.008	3	0	3_0.gif
105.001	1	4	0	4	0.621	4	1	4_0.gif
106.001	1	3	0	6	0	3	n/a	3_0.gif
107.001	1	1	0	1	0.673	1	1	1_0.gif
108.001	1	2	0	2	0.655	2	1	2_0.gif
109.001	1	4	0	4	0.599	4	1	4_0.gif
110.001	1	2	0	2	0.559	2	1	2_0.gif
111.001	1	3	0	3	0.521	3	1	3_0.gif
112.001	1	2	2	6	0	2	n/a	2_2.gif
113.001	1	4	2	6	0	3	n/a	4_2.gif
114.001	1	3	2	2	0.488	2	1	3_2.gif
115.001	1	4	2	4	0.209	4	1	4_2.gif
116.001	1	3	2	4	0.178	3	0	3_2.gif
117.001	1	4	2	3	0.72	4	0	4_2.gif
118.001	1	2	2	6	0	3	n/a	2_2.gif
119.001	1	3	2	6	0	4	n/a	3_2.gif
120.001	1	4	2	2	0.646	2	1	4_2.gif
121.001	1	3	2	3	0.963	3	1	3_2.gif
122.001	1	4	2	3	0.004	4	0	4_2.gif
123.001	1	1	2	4	0.256	3	0	1_2.gif
124.001	1	4	2	2	0.7	4	0	4_2.gif
125.001	1	1	2	6	0	1	n/a	1_2.gif
126.002	1	2	2	4	0.909	4	1	2_2.gif
127.002	1	1	2	4	0.003	1	0	1_2.gif
128.002	1	3	0	2	0.003	3	0	3_0.gif
129.002	1	4	0	3	0.003	4	0	4_0.gif
130.002	1	3	0	2	0.671	3	0	3_0.gif
131.002	1	1	0	1	0.89	1	1	1_0.gif
132.002	1	3	0	1	0.003	3	0	3_0.gif
133.002	1	4	0	4	0.527	4	1	4_0.gif
134.002	1	3	0	3	0.595	3	1	3_0.gif
135.002	1	1	0	2	0.786	1	0	1_0.gif
136.002	1	3	0	6	0	3	n/a	3_0.gif
137.002	1	2	0	6	0	2	n/a	2_0.gif
138.002	1	4	0	4	0.832	4	1	4_0.gif
139.002	1	3	0	4	0.003	3	0	3_0.gif
140.002	1	1	0	2	0.717	1	0	1_0.gif
141.002	1	2	0	6	0	2	n/a	2_0.gif
142.002	1	3	0	6	0	3	n/a	3_0.gif
143.002	1	4	0	6	0	4	n/a	4_0.gif
144.002	1	3	2	6	0	3	n/a	3_2.gif
145.002	1	2	2	6	0	4	n/a	2_2.gif
146.002	1	3	2	3	0.911	3	1	3_2.gif
147.002	1	1	2	3	0.003	2	0	1_2.gif
148.002	1	2	2	2	0.359	3	0	2_2.gif
149.002	1	4	2	3	0.003	1	0	4_2.gif
150.002	1	2	2	4	0.268	2	0	2_2.gif
151.002	1	4	2	6	0	4	n/a	4_2.gif
152.002	1	2	2	6	0	2	n/a	2_2.gif
153.002	1	3	2	4	0.392	4	1	3_2.gif
154.002	1	4	2	2	0.003	2	1	4_2.gif
155.002	1	3	2	6	0	3	n/a	3_2.gif
156.002	1	1	2	3	0.297	4	0	1_2.gif
157.002	1	4	2	6	0	3	n/a	4_2.gif
158.002	1	2	2	6	0	1	n/a	2_2.gif
159.002	1	4	2	4	0.049	4	1	4_2.gif
160.002	1	1	0	6	0	1	n/a	1_0.gif
161.002	1	2	0	2	0.9	2	1	2_0.gif
162.002	1	1	0	2	0.004	1	0	1_0.gif
163.002	1	2	0	2	0.774	2	1	2_0.gif
164.002	1	4	0	2	0.004	4	0	4_0.gif
165.002	1	1	0	4	0.004	1	0	1_0.gif
166.002	1	3	0	1	0.004	3	0	3_0.gif
167.002	1	4	0	6	0	4	n/a	4_0.gif
168.002	1	2	0	4	0.664	2	0	2_0.gif
169.002	1	1	0	2	0.036	1	0	1_0.gif
170.002	1	2	0	2	0.741	2	1	2_0.gif
171.002	1	4	0	2	0.004	4	0	4_0.gif
172.002	1	1	0	1	0.83	1	1	1_0.gif
173.002	1	2	0	1	0.004	2	0	2_0.gif
174.002	1	3	0	6	0	3	n/a	3_0.gif
175.002	1	2	0	3	0.255	2	0	2_0.gif
176.003	1	1	2	2	0.003	3	0	1_2.gif
177.003	1	4	2	6	0	2	n/a	4_2.gif
178.003	1	1	2	6	0	1	n/a	1_2.gif
179.003	1	3	2	1	0.239	4	0	3_2.gif
180.003	1	2	2	3	0.003	1	0	2_2.gif
181.003	1	3	2	6	0	3	n/a	3_2.gif
182.003	1	4	2	6	0	2	n/a	4_2.gif
183.003	1	1	2	4	0.274	3	0	1_2.gif
184.003	1	4	2	3	0.14	4	0	4_2.gif
185.003	1	2	2	4	0.003	1	0	2_2.gif
186.003	1	4	2	1	0.329	4	0	4_2.gif
187.003	1	2	2	2	0.209	2	1	2_2.gif
188.003	1	1	2	6	0	4	n/a	1_2.gif
189.003	1	2	2	4	0.311	2	0	2_2.gif
190.003	1	1	2	2	0.003	1	0	1_2.gif
191.003	1	3	2	1	0.23	2	0	3_2.gif
192.003	1	1	0	1	0.969	1	1	1_0.gif
193.003	1	2	0	1	0.003	2	0	2_0.gif
194.003	1	3	0	2	0.003	3	0	3_0.gif
195.003	1	1	0	1	0.971	1	1	1_0.gif
196.003	1	2	0	1	0.003	2	0	2_0.gif
197.003	1	3	0	3	0.27	3	1	3_0.gif
198.003	1	4	0	4	0.672	4	1	4_0.gif
199.003	1	3	0	3	0.773	3	1	3_0.gif
200.003	1	4	0	4	0.797	4	1	4_0.gif
201.003	1	3	0	4	0.003	3	0	3_0.gif
202.003	1	4	0	4	0.521	4	1	4_0.gif
203.003	1	2	0	2	0.652	2	1	2_0.gif
204.003	1	1	0	1	0.33	1	1	1_0.gif
205.003	1	4	0	4	0.794	4	1	4_0.gif
206.003	1	1	0	1	0.475	1	1	1_0.gif
207.003	1	2	0	2	0.285	2	1	2_0.gif
208.003	1	1	2	6	0	1	n/a	1_2.gif
209.003	1	2	2	6	0	2	n/a	2_2.gif
210.003	1	3	2	6	0	1	n/a	3_2.gif
211.003	1	4	2	1	0.229	2	0	4_2.gif
212.003	1	1	2	2	0.003	3	0	1_2.gif
213.003	1	3	2	4	0.284	4	1	3_2.gif
214.003	1	2	2	1	0.161	1	1	2_2.gif
215.003	1	4	2	6	0	3	n/a	4_2.gif
216.003	1	1	2	6	0	2	n/a	1_2.gif
217.003	1	2	2	6	0	4	n/a	2_2.gif
218.003	1	4	2	4	0.432	1	0	4_2.gif
219.003	1	3	2	6	0	2	n/a	3_2.gif
220.003	1	2	2	1	0.004	4	0	2_2.gif
221.003	1	1	2	1	0.725	3	0	1_2.gif
222.003	1	2	2	6	0	2	n/a	2_2.gif
223.003	1	1	2	6	0	1	n/a	1_2.gif
224.004	1	2	0	2	0.812	2	1	2_0.gif
225.004	1	1	0	2	0.003	1	0	1_0.gif
226.004	1	4	0	6	0	4	n/a	4_0.gif
227.004	1	1	0	4	0.059	1	0	1_0.gif
228.004	1	3	0	1	0.003	3	0	3_0.gif
229.004	1	4	0	4	0.495	4	1	4_0.gif
230.004	1	2	0	2	0.457	2	1	2_0.gif
231.004	1	3	0	3	0.539	3	1	3_0.gif
232.004	1	4	0	4	0.291	4	1	4_0.gif
233.004	1	1	0	1	0.403	1	1	1_0.gif
234.004	1	4	0	4	0.64	4	1	4_0.gif
235.004	1	1	0	1	0.327	1	1	1_0.gif
236.004	1	4	0	4	0.631	4	1	4_0.gif
237.004	1	3	0	1	0.948	3	0	3_0.gif
238.004	1	1	0	1	0.003	1	1	1_0.gif
239.004	1	2	0	2	0.538	2	1	2_0.gif
240.004	1	1	2	6	0	1	n/a	1_2.gif
241.004	1	4	2	1	0.61	2	0	4_2.gif
242.004	1	2	2	6	0	1	n/a	2_2.gif
243.004	1	4	2	6	0	4	n/a	4_2.gif
244.004	1	3	2	4	0.932	2	0	3_2.gif
245.004	1	4	2	4	0.003	4	1	4_2.gif
246.004	1	2	2	4	0.006	3	0	2_2.gif
247.004	1	1	2	2	0.313	4	0	1_2.gif
248.004	1	3	2	6	0	2	n/a	3_2.gif
249.004	1	1	2	4	0.457	1	0	1_2.gif
250.004	1	2	2	1	0.003	3	0	2_2.gif
251.004	1	1	2	6	0	1	n/a	1_2.gif
252.004	1	3	2	6	0	2	n/a	3_2.gif
253.004	1	2	2	3	0.932	1	0	2_2.gif
254.004	1	4	2	3	0.003	3	1	4_2.gif
255.004	1	2	2	2	0.268	2	1	2_2.gif
