onset	duration	nback_display	trial_type	response	response_time	correct_response	correct	stim_file
0	1	1	0	1	0.479	1	1	1_0.gif
1	1	4	0	4	0.856	4	1	4_0.gif
2	1	3	0	4	0.003	3	0	3_0.gif
3	1	4	0	4	0.648	4	1	4_0.gif
4	1	2	0	2	0.446	2	1	2_0.gif
5	1	3	0	3	0.427	3	1	3_0.gif
6	1	4	0	4	0.536	4	1	4_0.gif
7	1	3	0	3	0.479	3	1	3_0.gif
8	1	2	0	2	0.498	2	1	2_0.gif
9	1	4	0	4	0.387	4	1	4_0.gif
10	1	2	0	2	0.398	2	1	2_0.gif
11	1	3	0	3	0.523	3	1	3_0.gif
12	1	4	0	4	0.56	4	1	4_0.gif
13	1	3	0	3	0.591	3	1	3_0.gif
14	1	4	0	4	0.476	4	1	4_0.gif
15	1	3	0	3	0.39	3	1	3_0.gif
16	1	4	2	6	0	4	n/a	4_2.gif
17	1	2	2	6	0	3	n/a	2_2.gif
18	1	4	2	4	0.413	4	1	4_2.gif
19	1	1	2	2	0.325	2	1	1_2.gif
20	1	4	2	4	0.301	4	1	4_2.gif
21	1	2	2	1	0.334	1	1	2_2.gif
22	1	1	2	4	0.352	4	1	1_2.gif
23	1	3	2	2	0.405	2	1	3_2.gif
24	1	2	2	1	0.41	1	1	2_2.gif
25	1	3	2	3	0.431	3	1	3_2.gif
26	1	4	2	2	0.465	2	1	4_2.gif
27	1	3	2	3	0.52	3	1	3_2.gif
28	1	2	2	4	0.484	4	1	2_2.gif
29	1	3	2	3	0.551	3	1	3_2.gif
30	1	4	2	2	0.541	2	1	4_2.gif
31	1	2	2	3	0.522	3	1	2_2.gif
32	1	3	0	3	0.864	3	1	3_0.gif
33	1	4	0	3	0.004	4	0	4_0.gif
34	1	2	0	2	0.596	2	1	2_0.gif
35	1	1	0	1	0.599	1	1	1_0.gif
36	1	3	0	3	0.45	3	1	3_0.gif
37	1	4	0	4	0.535	4	1	4_0.gif
38	1	1	0	1	0.577	1	1	1_0.gif
39	1	4	0	4	0.671	4	1	4_0.gif
40	1	2	0	2	0.644	2	1	2_0.gif
41	1	1	0	1	0.649	1	1	1_0.gif
42	1	4	0	4	0.602	4	1	4_0.gif
43	1	3	0	3	0.518	3	1	3_0.gif
44	1	2	0	2	0.495	2	1	2_0.gif
45	1	1	0	1	0.545	1	1	1_0.gif
46	1	3	0	3	0.496	3	1	3_0.gif
47	1	1	0	1	0.593	1	1	1_0.gif
48.001	1	2	2	6	0	3	n/a	2_2.gif
49.001	1	3	2	6	0	1	n/a	3_2.gif
50.001	1	4	2	2	0.351	2	1	4_2.gif
51.001	1	1	2	3	0.391	3	1	1_2.gif
52.001	1	4	2	4	0.386	4	1	4_2.gif
53.001	1	3	2	1	0.416	1	1	3_2.gif
54.001	1	2	2	4	0.382	4	1	2_2.gif
55.001	1	3	2	3	0.533	3	1	3_2.gif
56.001	1	1	2	2	0.427	2	1	1_2.gif
57.001	1	4	2	3	0.487	3	1	4_2.gif
58.001	1	1	2	1	0.466	1	1	1_2.gif
59.001	1	4	2	4	0.435	4	1	4_2.gif
60.001	1	2	2	1	0.56	1	1	2_2.gif
61.001	1	1	2	4	0.667	4	1	1_2.gif
62.001	1	3	2	2	0.616	2	1	3_2.gif
63.001	1	2	2	1	0.569	1	1	2_2.gif
64.001	1	4	0	4	0.989	4	1	4_0.gif
65.001	1	1	0	4	0.003	1	0	1_0.gif
66.001	1	3	0	3	0.514	3	1	3_0.gif
67.001	1	1	0	1	0.51	1	1	1_0.gif
68.001	1	3	0	3	0.516	3	1	3_0.gif
69.001	1	1	0	1	0.387	1	1	1_0.gif
70.001	1	2	0	2	0.44	2	1	2_0.gif
71.001	1	3	0	3	0.402	3	1	3_0.gif
72.001	1	2	0	2	0.393	2	1	2_0.gif
73.001	1	3	0	3	0.41	3	1	3_0.gif
74.001	1	1	0	1	0.428	1	1	1_0.gif
75.001	1	3	0	3	0.5	3	1	3_0.gif
76.001	1	2	0	2	0.44	2	1	2_0.gif
77.001	1	3	0	3	0.471	3	1	3_0.gif
78.001	1	4	0	4	0.681	4	1	4_0.gif
79.001	1	2	0	2	0.631	2	1	2_0.gif
80.002	1	3	2	6	0	4	n/a	3_2.gif
81.002	1	2	2	6	0	2	n/a	2_2.gif
82.002	1	3	2	3	0.44	3	1	3_2.gif
83.002	1	1	2	2	0.306	2	1	1_2.gif
84.002	1	4	2	3	0.322	3	1	4_2.gif
85.002	1	2	2	1	0.382	1	1	2_2.gif
86.002	1	1	2	4	0.435	4	1	1_2.gif
87.002	1	2	2	2	0.454	2	1	2_2.gif
88.002	1	4	2	1	0.52	1	1	4_2.gif
89.002	1	2	2	2	0.516	2	1	2_2.gif
90.002	1	4	2	4	0.617	4	1	4_2.gif
91.002	1	1	2	2	0.49	2	1	1_2.gif
92.002	1	3	2	4	0.513	4	1	3_2.gif
93.002	1	2	2	1	0.522	1	1	2_2.gif
94.002	1	4	2	3	0.561	3	1	4_2.gif
95.002	1	2	2	2	0.474	2	1	2_2.gif
96.002	1	1	0	1	0.923	1	1	1_0.gif
97.002	1	2	0	1	0.003	2	0	2_0.gif
98.002	1	3	0	3	0.485	3	1	3_0.gif
99.002	1	1	0	1	0.544	1	1	1_0.gif
100.002	1	3	0	3	0.404	3	1	3_0.gif
101.002	1	4	0	4	0.627	4	1	4_0.gif
102.002	1	3	0	3	0.392	3	1	3_0.gif
103.002	1	4	0	4	0.487	4	1	4_0.gif
104.002	1	2	0	2	0.539	2	1	2_0.gif
105.002	1	4	0	4	0.606	4	1	4_0.gif
106.002	1	2	0	2	0.438	2	1	2_0.gif
107.002	1	4	0	4	0.538	4	1	4_0.gif
108.002	1	2	0	2	0.513	2	1	2_0.gif
109.002	1	3	0	3	0.525	3	1	3_0.gif
110.002	1	2	0	2	0.483	2	1	2_0.gif
111.002	1	4	0	4	0.417	4	1	4_0.gif
112.003	1	2	2	6	0	2	n/a	2_2.gif
113.003	1	4	2	6	0	4	n/a	4_2.gif
114.003	1	3	2	4	0.368	2	0	3_2.gif
115.003	1	4	2	4	0.26	4	1	4_2.gif
116.003	1	1	2	3	0.61	3	1	1_2.gif
117.003	1	2	2	4	0.391	4	1	2_2.gif
118.003	1	3	2	1	0.321	1	1	3_2.gif
119.003	1	4	2	2	0.372	2	1	4_2.gif
120.003	1	1	2	3	0.377	3	1	1_2.gif
121.003	1	2	2	4	0.265	4	1	2_2.gif
122.003	1	3	2	1	0.257	1	1	3_2.gif
123.003	1	2	2	2	0.213	2	1	2_2.gif
124.003	1	1	2	3	0.163	3	1	1_2.gif
125.003	1	2	2	2	0.088	2	1	2_2.gif
126.003	1	3	2	1	0.003	1	1	3_2.gif
127.003	1	2	2	2	0.003	2	1	2_2.gif
128.003	1	3	0	3	0.003	3	1	3_0.gif
129.003	1	2	0	3	0.021	2	0	2_0.gif
130.003	1	1	0	1	0.593	1	1	1_0.gif
131.003	1	4	0	4	0.614	4	1	4_0.gif
132.003	1	2	0	2	0.457	2	1	2_0.gif
133.003	1	3	0	3	0.377	3	1	3_0.gif
134.003	1	4	0	4	0.644	4	1	4_0.gif
135.003	1	1	0	1	0.463	1	1	1_0.gif
136.003	1	2	0	2	0.35	2	1	2_0.gif
137.003	1	3	0	3	0.337	3	1	3_0.gif
138.003	1	2	0	2	0.365	2	1	2_0.gif
139.003	1	4	0	4	0.555	4	1	4_0.gif
140.003	1	3	0	3	0.389	3	1	3_0.gif
141.003	1	2	0	2	0.307	2	1	2_0.gif
142.003	1	3	0	3	0.478	3	1	3_0.gif
143.003	1	4	0	4	0.364	4	1	4_0.gif
144.003	1	3	2	6	0	3	n/a	3_2.gif
145.003	1	4	2	6	0	4	n/a	4_2.gif
146.003	1	1	2	3	0.37	3	1	1_2.gif
147.003	1	2	2	4	0.245	4	1	2_2.gif
148.003	1	4	2	1	0.223	1	1	4_2.gif
149.004	1	1	2	2	0.044	2	1	1_2.gif
150.004	1	4	2	4	0.266	4	1	4_2.gif
151.004	1	2	2	1	0.261	1	1	2_2.gif
152.004	1	3	2	4	0.211	4	1	3_2.gif
153.004	1	4	2	2	0.163	2	1	4_2.gif
154.004	1	3	2	3	0.279	3	1	3_2.gif
155.004	1	1	2	4	0.124	4	1	1_2.gif
156.004	1	4	2	3	0.108	3	1	4_2.gif
157.004	1	3	2	1	0.017	1	1	3_2.gif
158.004	1	1	2	4	0.002	4	1	1_2.gif
159.004	1	4	2	1	0.811	3	0	4_2.gif
160.004	1	1	0	1	0.849	1	1	1_0.gif
161.004	1	2	0	1	0.003	2	0	2_0.gif
162.004	1	3	0	3	0.649	3	1	3_0.gif
163.004	1	4	0	4	0.58	4	1	4_0.gif
164.004	1	2	0	2	0.499	2	1	2_0.gif
165.004	1	4	0	4	0.545	4	1	4_0.gif
166.004	1	2	0	2	0.469	2	1	2_0.gif
167.004	1	4	0	4	0.453	4	1	4_0.gif
168.004	1	1	0	1	0.63	1	1	1_0.gif
169.004	1	2	0	2	0.461	2	1	2_0.gif
170.004	1	3	0	3	0.402	3	1	3_0.gif
171.004	1	2	0	2	0.366	2	1	2_0.gif
172.004	1	4	0	4	0.349	4	1	4_0.gif
173.004	1	2	0	2	0.395	2	1	2_0.gif
174.004	1	4	0	4	0.317	4	1	4_0.gif
175.004	1	3	0	3	0.41	3	1	3_0.gif
176.004	1	4	2	6	0	4	n/a	4_2.gif
177.004	1	1	2	6	0	3	n/a	1_2.gif
178.004	1	3	2	4	0.261	4	1	3_2.gif
179.004	1	2	2	1	0.123	1	1	2_2.gif
180.004	1	4	2	3	0.003	3	1	4_2.gif
181.004	1	3	2	4	0.252	2	0	3_2.gif
182.004	1	4	2	3	0.74	4	0	4_2.gif
183.004	1	2	2	4	0.636	3	0	2_2.gif
184.004	1	1	2	2	0.483	4	0	1_2.gif
185.004	1	4	2	1	0.349	2	0	4_2.gif
186.004	1	3	2	4	0.288	1	0	3_2.gif
187.004	1	4	2	3	0.335	4	0	4_2.gif
188.004	1	2	2	4	0.3	3	0	2_2.gif
189.004	1	3	2	6	0	4	n/a	3_2.gif
190.004	1	4	2	2	0.17	2	1	4_2.gif
191.004	1	3	2	3	0.218	3	1	3_2.gif
192.005	1	2	0	4	0.321	2	0	2_0.gif
193.005	1	4	0	6	0	4	n/a	4_0.gif
194.005	1	2	0	2	0.417	2	1	2_0.gif
195.005	1	3	0	3	0.403	3	1	3_0.gif
196.005	1	4	0	4	0.359	4	1	4_0.gif
197.005	1	3	0	3	0.372	3	1	3_0.gif
198.005	1	4	0	4	0.306	4	1	4_0.gif
199.005	1	3	0	3	0.29	3	1	3_0.gif
200.005	1	4	0	4	0.362	4	1	4_0.gif
201.005	1	2	0	2	0.395	2	1	2_0.gif
202.005	1	4	0	4	0.373	4	1	4_0.gif
203.005	1	1	0	1	0.532	1	1	1_0.gif
204.005	1	4	0	4	0.524	4	1	4_0.gif
205.005	1	2	0	2	0.334	2	1	2_0.gif
206.005	1	1	0	1	0.558	1	1	1_0.gif
207.005	1	3	0	3	0.429	3	1	3_0.gif
208.005	1	2	2	6	0	1	n/a	2_2.gif
209.005	1	3	2	6	0	3	n/a	3_2.gif
210.005	1	4	2	2	0.23	2	1	4_2.gif
211.005	1	3	2	3	0.003	3	1	3_2.gif
212.005	1	2	2	4	0.005	4	1	2_2.gif
213.005	1	3	2	3	0.039	3	1	3_2.gif
214.005	1	4	2	2	0.173	2	1	4_2.gif
215.005	1	2	2	3	0.431	3	1	2_2.gif
216.005	1	3	2	4	0.266	4	1	3_2.gif
217.005	1	4	2	2	0.17	2	1	4_2.gif
218.005	1	2	2	3	0.003	3	1	2_2.gif
219.005	1	1	2	4	0.11	4	1	1_2.gif
220.005	1	3	2	1	0.06	2	0	3_2.gif
221.005	1	4	2	6	0	1	n/a	4_2.gif
222.005	1	1	2	3	0.215	3	1	1_2.gif
223.005	1	4	2	1	0.223	4	0	4_2.gif
224.005	1	2	0	4	0.271	2	0	2_0.gif
225.005	1	1	0	2	0.003	1	0	1_0.gif
226.005	1	4	0	4	0.604	4	1	4_0.gif
227.005	1	3	0	3	0.441	3	1	3_0.gif
228.005	1	2	0	2	0.282	2	1	2_0.gif
229.005	1	1	0	1	0.304	1	1	1_0.gif
230.005	1	3	0	3	0.423	3	1	3_0.gif
231.005	1	1	0	1	0.509	1	1	1_0.gif
232.005	1	2	0	2	0.343	2	1	2_0.gif
233.005	1	3	0	3	0.339	3	1	3_0.gif
234.005	1	4	0	4	0.504	4	1	4_0.gif
235.005	1	1	0	1	0.422	1	1	1_0.gif
236.005	1	4	0	4	0.553	4	1	4_0.gif
237.005	1	3	0	3	0.387	3	1	3_0.gif
238.005	1	2	0	2	0.328	2	1	2_0.gif
239.006	1	3	0	3	0.378	3	1	3_0.gif
240.006	1	1	2	6	0	2	n/a	1_2.gif
241.006	1	4	2	6	0	3	n/a	4_2.gif
242.006	1	1	2	1	0.332	1	1	1_2.gif
243.006	1	4	2	4	0.25	4	1	4_2.gif
244.006	1	2	2	1	0.332	1	1	2_2.gif
245.006	1	1	2	4	0.243	4	1	1_2.gif
246.006	1	3	2	2	0.207	2	1	3_2.gif
247.006	1	2	2	1	0.061	1	1	2_2.gif
248.006	1	4	2	3	0.003	3	1	4_2.gif
249.006	1	1	2	2	0.003	2	1	1_2.gif
250.006	1	3	2	4	0.234	4	1	3_2.gif
251.006	1	1	2	1	0.381	1	1	1_2.gif
252.006	1	3	2	3	0.267	3	1	3_2.gif
253.006	1	1	2	1	0.218	1	1	1_2.gif
254.006	1	2	2	3	0.286	3	1	2_2.gif
255.006	1	3	2	1	0.117	1	1	3_2.gif
