onset	duration	nback_display	trial_type	response	response_time	correct_response	correct	stim_file
0	1	1	0	1	0.547	1	1	1_0.gif
1	1	4	0	4	0.659	4	1	4_0.gif
2	1	3	0	4	0.003	3	0	3_0.gif
3	1	1	0	1	0.397	1	1	1_0.gif
4	1	4	0	4	0.323	4	1	4_0.gif
5	1	1	0	1	0.394	1	1	1_0.gif
6	1	2	0	2	0.282	2	1	2_0.gif
7	1	4	0	4	0.495	4	1	4_0.gif
8	1	3	0	3	0.331	3	1	3_0.gif
9	1	2	0	2	0.323	2	1	2_0.gif
10	1	4	0	4	0.573	4	1	4_0.gif
11	1	2	0	2	0.408	2	1	2_0.gif
12	1	3	0	3	0.353	3	1	3_0.gif
13	1	4	0	4	0.499	4	1	4_0.gif
14	1	2	0	2	0.476	2	1	2_0.gif
15	1	4	0	4	0.45	4	1	4_0.gif
16	1	3	2	6	0	2	n/a	3_2.gif
17	1	2	2	6	0	4	n/a	2_2.gif
18	1	3	2	3	0.216	3	1	3_2.gif
19	1	1	2	2	0.003	2	1	1_2.gif
20	1	3	2	3	0.003	3	1	3_2.gif
21	1	4	2	1	0.253	1	1	4_2.gif
22	1	2	2	3	0.157	3	1	2_2.gif
23	1	1	2	4	0.003	4	1	1_2.gif
24	1	3	2	2	0.063	2	1	3_2.gif
25	1	1	2	1	0.124	1	1	1_2.gif
26	1	2	2	6	0	3	n/a	2_2.gif
27	1	4	2	1	0.674	1	1	4_2.gif
28	1	3	2	2	0.481	2	1	3_2.gif
29	1	2	2	6	0	4	n/a	2_2.gif
30	1	1	2	6	0	3	n/a	1_2.gif
31	1	2	2	2	0.654	2	1	2_2.gif
32	1	1	0	1	0.395	1	1	1_0.gif
33	1	2	0	2	0.413	2	1	2_0.gif
34	1	4	0	4	0.523	4	1	4_0.gif
35	1	3	0	3	0.342	3	1	3_0.gif
36	1	1	0	1	0.367	1	1	1_0.gif
37	1	2	0	2	0.307	2	1	2_0.gif
38	1	1	0	1	0.428	1	1	1_0.gif
39	1	2	0	2	0.411	2	1	2_0.gif
40	1	4	0	4	0.562	4	1	4_0.gif
41	1	3	0	3	0.36	3	1	3_0.gif
42	1	2	0	2	0.367	2	1	2_0.gif
43	1	4	0	4	0.538	4	1	4_0.gif
44	1	1	0	1	0.323	1	1	1_0.gif
45	1	2	0	2	0.355	2	1	2_0.gif
46	1	4	0	4	0.42	4	1	4_0.gif
47	1	1	0	1	0.303	1	1	1_0.gif
48.001	1	2	2	2	0.334	4	0	2_2.gif
49.001	1	3	2	6	0	1	n/a	3_2.gif
50.001	1	4	2	3	0.181	2	0	4_2.gif
51.001	1	1	2	6	0	3	n/a	1_2.gif
52.001	1	4	2	6	0	4	n/a	4_2.gif
53.001	1	3	2	1	0.366	1	1	3_2.gif
54.001	1	1	2	4	0.301	4	1	1_2.gif
55.001	1	3	2	3	0.534	3	1	3_2.gif
56.001	1	4	2	1	0.556	1	1	4_2.gif
57.001	1	2	2	3	0.494	3	1	2_2.gif
58.001	1	4	2	4	0.264	4	1	4_2.gif
59.001	1	3	2	2	0.067	2	1	3_2.gif
60.001	1	4	2	4	0.121	4	1	4_2.gif
61.001	1	1	2	3	0.136	3	1	1_2.gif
62.001	1	2	2	2	0.409	4	0	2_2.gif
63.001	1	3	2	1	0.98	1	1	3_2.gif
64.001	1	1	0	1	0.003	1	1	1_0.gif
65.001	1	3	0	3	0.402	3	1	3_0.gif
66.001	1	4	0	4	0.522	4	1	4_0.gif
67.001	1	3	0	3	0.475	3	1	3_0.gif
68.001	1	4	0	4	0.462	4	1	4_0.gif
69.001	1	2	0	2	0.358	2	1	2_0.gif
70.001	1	3	0	3	0.416	3	1	3_0.gif
71.001	1	2	0	2	0.366	2	1	2_0.gif
72.001	1	3	0	3	0.506	3	1	3_0.gif
73.001	1	1	0	1	0.356	1	1	1_0.gif
74.001	1	4	0	4	0.369	4	1	4_0.gif
75.001	1	3	0	3	0.304	3	1	3_0.gif
76.001	1	1	0	1	0.355	1	1	1_0.gif
77.001	1	3	0	3	0.488	3	1	3_0.gif
78.001	1	1	0	1	0.415	1	1	1_0.gif
79.001	1	2	0	2	0.325	2	1	2_0.gif
80.002	1	4	2	6	0	1	n/a	4_2.gif
81.002	1	3	2	6	0	2	n/a	3_2.gif
82.002	1	1	2	3	0.302	4	0	1_2.gif
83.002	1	4	2	4	0.258	3	0	4_2.gif
84.002	1	1	2	1	0.179	1	1	1_2.gif
85.002	1	3	2	4	0.48	4	1	3_2.gif
86.002	1	2	2	1	0.463	1	1	2_2.gif
87.002	1	4	2	3	0.065	3	1	4_2.gif
88.002	1	1	2	2	0.245	2	1	1_2.gif
89.002	1	4	2	4	0.003	4	1	4_2.gif
90.002	1	3	2	1	0.021	1	1	3_2.gif
91.002	1	2	2	3	0.112	4	0	2_2.gif
92.002	1	3	2	6	0	3	n/a	3_2.gif
93.002	1	2	2	3	0.755	2	0	2_2.gif
94.002	1	1	2	2	0.455	3	0	1_2.gif
95.002	1	3	2	1	0.53	2	0	3_2.gif
96.003	1	2	0	2	0.707	2	1	2_0.gif
97.003	1	3	0	3	0.529	3	1	3_0.gif
98.003	1	1	0	1	0.491	1	1	1_0.gif
99.003	1	4	0	4	0.311	4	1	4_0.gif
100.003	1	3	0	3	0.332	3	1	3_0.gif
101.003	1	4	0	4	0.714	4	1	4_0.gif
102.003	1	2	0	2	0.444	2	1	2_0.gif
103.003	1	4	0	4	0.564	4	1	4_0.gif
104.003	1	2	0	2	0.4	2	1	2_0.gif
105.003	1	4	0	4	0.575	4	1	4_0.gif
106.003	1	2	0	2	0.301	2	1	2_0.gif
107.003	1	4	0	4	0.532	4	1	4_0.gif
108.003	1	2	0	2	0.282	2	1	2_0.gif
109.003	1	1	0	1	0.418	1	1	1_0.gif
110.003	1	3	0	3	0.301	3	1	3_0.gif
111.003	1	2	0	2	0.387	2	1	2_0.gif
112.003	1	4	2	4	0.345	3	0	4_2.gif
113.003	1	3	2	6	0	2	n/a	3_2.gif
114.003	1	2	2	3	0.388	4	0	2_2.gif
115.003	1	4	2	6	0	3	n/a	4_2.gif
116.003	1	1	2	2	0.397	2	1	1_2.gif
117.003	1	3	2	4	0.179	4	1	3_2.gif
118.003	1	1	2	1	0.125	1	1	1_2.gif
119.003	1	4	2	3	0.004	3	1	4_2.gif
120.003	1	2	2	4	0.256	1	0	2_2.gif
121.003	1	1	2	1	0.572	4	0	1_2.gif
122.003	1	4	2	4	0.536	2	0	4_2.gif
123.003	1	3	2	6	0	1	n/a	3_2.gif
124.004	1	2	2	6	0	4	n/a	2_2.gif
125.004	1	1	2	3	0.21	3	1	1_2.gif
126.004	1	4	2	2	0.073	2	1	4_2.gif
127.004	1	3	2	1	0.356	1	1	3_2.gif
128.004	1	1	0	4	0.072	1	0	1_0.gif
129.004	1	2	0	1	0.003	2	0	2_0.gif
130.004	1	3	0	3	0.497	3	1	3_0.gif
131.004	1	2	0	2	0.3	2	1	2_0.gif
132.004	1	4	0	4	0.562	4	1	4_0.gif
133.004	1	3	0	3	0.434	3	1	3_0.gif
134.004	1	2	0	2	0.298	2	1	2_0.gif
135.004	1	3	0	3	0.339	3	1	3_0.gif
136.004	1	2	0	2	0.293	2	1	2_0.gif
137.004	1	3	0	3	0.319	3	1	3_0.gif
138.004	1	2	0	2	0.275	2	1	2_0.gif
139.004	1	4	0	4	0.414	4	1	4_0.gif
140.004	1	2	0	2	0.354	2	1	2_0.gif
141.004	1	1	0	1	0.282	1	1	1_0.gif
142.004	1	4	0	4	0.321	4	1	4_0.gif
143.004	1	3	0	3	0.428	3	1	3_0.gif
144.004	1	2	2	2	0.318	4	0	2_2.gif
145.004	1	4	2	6	0	3	n/a	4_2.gif
146.004	1	3	2	2	0.522	2	1	3_2.gif
147.004	1	2	2	4	0.216	4	1	2_2.gif
148.004	1	3	2	3	0.055	3	1	3_2.gif
149.004	1	4	2	2	0.147	2	1	4_2.gif
150.004	1	3	2	4	0.004	3	0	3_2.gif
151.004	1	2	2	6	0	4	n/a	2_2.gif
152.004	1	4	2	2	0.855	3	0	4_2.gif
153.004	1	1	2	2	0.003	2	1	1_2.gif
154.004	1	2	2	4	0.003	4	1	2_2.gif
155.004	1	4	2	2	0.872	1	0	4_2.gif
156.004	1	1	2	4	0.766	2	0	1_2.gif
157.004	1	4	2	6	0	4	n/a	4_2.gif
158.004	1	1	2	6	0	1	n/a	1_2.gif
159.004	1	3	2	4	0.682	4	1	3_2.gif
160.005	1	4	0	1	0.375	4	0	4_0.gif
161.005	1	3	0	4	0.079	3	0	3_0.gif
162.005	1	4	0	4	0.48	4	1	4_0.gif
163.005	1	2	0	2	0.38	2	1	2_0.gif
164.005	1	1	0	1	0.389	1	1	1_0.gif
165.005	1	2	0	2	0.326	2	1	2_0.gif
166.005	1	3	0	3	0.473	3	1	3_0.gif
167.005	1	2	0	2	0.312	2	1	2_0.gif
168.005	1	1	0	1	0.445	1	1	1_0.gif
169.005	1	2	0	2	0.332	2	1	2_0.gif
170.005	1	3	0	3	0.338	3	1	3_0.gif
171.005	1	2	0	2	0.248	2	1	2_0.gif
172.005	1	4	0	4	0.517	4	1	4_0.gif
173.005	1	1	0	1	0.287	1	1	1_0.gif
174.005	1	4	0	4	0.526	4	1	4_0.gif
175.005	1	2	0	2	0.432	2	1	2_0.gif
176.006	1	3	2	6	0	4	n/a	3_2.gif
177.006	1	2	2	3	0.979	2	0	2_2.gif
178.006	1	4	2	3	0.003	3	1	4_2.gif
179.006	1	2	2	2	0.014	2	1	2_2.gif
180.006	1	4	2	4	0.035	4	1	4_2.gif
181.006	1	2	2	2	0.003	2	1	2_2.gif
182.006	1	3	2	6	0	4	n/a	3_2.gif
183.006	1	1	2	6	0	2	n/a	1_2.gif
184.006	1	3	2	3	0.199	3	1	3_2.gif
185.006	1	2	2	1	0.003	1	1	2_2.gif
186.006	1	3	2	6	0	3	n/a	3_2.gif
187.006	1	4	2	3	0.709	2	0	4_2.gif
188.015	1	3	2	4	0.787	3	0	3_2.gif
189.015	1	1	2	3	0.704	4	0	1_2.gif
190.015	1	3	2	4	0.773	3	0	3_2.gif
191.015	1	2	2	1	0.454	1	1	2_2.gif
192.015	1	1	0	1	0.698	1	1	1_0.gif
193.015	1	4	0	4	0.538	4	1	4_0.gif
194.015	1	3	0	3	0.422	3	1	3_0.gif
195.015	1	1	0	1	0.462	1	1	1_0.gif
196.015	1	4	0	4	0.411	4	1	4_0.gif
197.015	1	1	0	1	0.349	1	1	1_0.gif
198.015	1	2	0	2	0.328	2	1	2_0.gif
199.015	1	4	0	4	0.374	4	1	4_0.gif
200.015	1	3	0	3	0.345	3	1	3_0.gif
201.015	1	2	0	2	0.285	2	1	2_0.gif
202.015	1	4	0	4	0.487	4	1	4_0.gif
203.015	1	2	0	2	0.476	2	1	2_0.gif
204.015	1	3	0	3	0.41	3	1	3_0.gif
205.015	1	4	0	4	0.514	4	1	4_0.gif
206.015	1	2	0	2	0.437	2	1	2_0.gif
207.015	1	4	0	4	0.508	4	1	4_0.gif
208.015	1	3	2	6	0	2	n/a	3_2.gif
209.015	1	2	2	6	0	4	n/a	2_2.gif
210.016	1	3	2	3	0.213	3	1	3_2.gif
211.016	1	1	2	2	0.003	2	1	1_2.gif
212.016	1	3	2	3	0.003	3	1	3_2.gif
213.016	1	4	2	1	0.2	1	1	4_2.gif
214.016	1	2	2	3	0.324	3	1	2_2.gif
215.016	1	1	2	4	0.332	4	1	1_2.gif
216.016	1	3	2	2	0.206	2	1	3_2.gif
217.016	1	1	2	1	0.226	1	1	1_2.gif
218.016	1	2	2	3	0.222	3	1	2_2.gif
219.016	1	4	2	1	0.177	1	1	4_2.gif
220.016	1	3	2	2	0.097	2	1	3_2.gif
221.016	1	2	2	4	0.003	4	1	2_2.gif
222.016	1	1	2	3	0.032	3	1	1_2.gif
223.016	1	2	2	2	0.003	2	1	2_2.gif
224.016	1	1	0	1	0.042	1	1	1_0.gif
225.016	1	2	0	1	0.065	2	0	2_0.gif
226.016	1	4	0	4	0.537	4	1	4_0.gif
227.016	1	3	0	3	0.278	3	1	3_0.gif
228.016	1	1	0	6	0	1	n/a	1_0.gif
229.016	1	2	0	2	0.536	2	1	2_0.gif
230.016	1	1	0	1	0.352	1	1	1_0.gif
231.016	1	2	0	2	0.397	2	1	2_0.gif
232.016	1	4	0	4	0.485	4	1	4_0.gif
233.016	1	3	0	3	0.35	3	1	3_0.gif
234.016	1	2	0	2	0.299	2	1	2_0.gif
235.016	1	4	0	4	0.476	4	1	4_0.gif
236.016	1	1	0	1	0.37	1	1	1_0.gif
237.016	1	2	0	2	0.349	2	1	2_0.gif
238.016	1	4	0	4	0.49	4	1	4_0.gif
239.016	1	1	0	1	0.309	1	1	1_0.gif
240.016	1	2	2	2	0.352	4	0	2_2.gif
241.016	1	3	2	6	0	1	n/a	3_2.gif
242.016	1	4	2	2	0.403	2	1	4_2.gif
243.016	1	1	2	3	0.128	3	1	1_2.gif
244.016	1	4	2	4	0.08	4	1	4_2.gif
245.016	1	3	2	4	0.31	1	0	3_2.gif
246.016	1	1	2	1	0.16	4	0	1_2.gif
247.016	1	3	2	3	0.043	3	1	3_2.gif
248.016	1	4	2	1	0.467	1	1	4_2.gif
249.016	1	2	2	4	0.409	3	0	2_2.gif
250.016	1	4	2	6	0	4	n/a	4_2.gif
251.017	1	3	2	6	0	2	n/a	3_2.gif
252.017	1	4	2	4	0.209	4	1	4_2.gif
253.017	1	1	2	3	0.002	3	1	1_2.gif
254.017	1	2	2	6	0	4	n/a	2_2.gif
255.017	1	3	2	1	0.118	1	1	3_2.gif
