onset	duration	nback_display	trial_type	response	response_time	correct_response	correct	stim_file
0	1	4	0	4	0.791	4	1	4_0.gif
1	1	1	0	4	0.006	1	0	1_0.gif
2	1	4	0	4	0.505	4	1	4_0.gif
3	1	2	0	2	0.29	2	1	2_0.gif
4	1	4	0	4	0.45	4	1	4_0.gif
5	1	1	0	1	0.438	1	1	1_0.gif
6	1	3	0	3	0.446	3	1	3_0.gif
7	1	1	0	1	0.445	1	1	1_0.gif
8	1	2	0	2	0.312	2	1	2_0.gif
9	1	1	0	6	0	1	n/a	1_0.gif
10	1	2	0	2	0.435	2	1	2_0.gif
11	1	3	0	3	0.323	3	1	3_0.gif
12	1	2	0	2	0.338	2	1	2_0.gif
13	1	3	0	3	0.36	3	1	3_0.gif
14	1	2	0	2	0.283	2	1	2_0.gif
15	1	1	0	1	0.353	1	1	1_0.gif
16	1	3	2	3	0.575	2	0	3_2.gif
17	1	2	2	6	0	1	n/a	2_2.gif
18	1	4	2	3	0.045	3	1	4_2.gif
19	1	1	2	6	0	2	n/a	1_2.gif
20	1	3	2	2	0.485	4	0	3_2.gif
21	1	1	2	1	0.158	1	1	1_2.gif
22	1	2	2	4	0.607	3	0	2_2.gif
23	1	1	2	3	0.599	1	0	1_2.gif
24	1	2	2	2	0.151	2	1	2_2.gif
25	1	3	2	1	0.646	1	1	3_2.gif
26	1	4	2	2	0.325	2	1	4_2.gif
27	1	1	2	4	0.817	3	0	1_2.gif
28	1	3	2	4	0.007	4	1	3_2.gif
29	1	2	2	6	0	1	n/a	2_2.gif
30	1	1	2	2	0.156	3	0	1_2.gif
31	1	2	2	1	0.623	2	0	2_2.gif
32	1	3	0	3	0.668	3	1	3_0.gif
33	1	1	0	1	0.519	1	1	1_0.gif
34	1	3	0	3	0.466	3	1	3_0.gif
35	1	2	0	2	0.409	2	1	2_0.gif
36	1	1	0	1	0.455	1	1	1_0.gif
37	1	4	0	4	0.394	4	1	4_0.gif
38	1	3	0	3	0.348	3	1	3_0.gif
39	1	1	0	6	0	1	n/a	1_0.gif
40	1	4	0	1	0.038	4	0	4_0.gif
41	1	3	0	4	0.136	3	0	3_0.gif
42	1	4	0	4	0.413	4	1	4_0.gif
43	1	2	0	2	0.311	2	1	2_0.gif
44	1	3	0	3	0.358	3	1	3_0.gif
45	1	1	0	1	0.301	1	1	1_0.gif
46	1	2	0	2	0.245	2	1	2_0.gif
47	1	3	0	3	0.255	3	1	3_0.gif
48	1	2	2	6	0	2	n/a	2_2.gif
49	1	1	2	6	0	3	n/a	1_2.gif
50	1	4	2	2	0.507	2	1	4_2.gif
51	1	1	2	1	0.217	1	1	1_2.gif
52	1	4	2	2	0.578	4	0	4_2.gif
53	1	3	2	3	0.875	1	0	3_2.gif
54	1	2	2	3	0.007	4	0	2_2.gif
55	1	4	2	2	0.006	3	0	4_2.gif
56	1	1	2	3	0.476	2	0	1_2.gif
57	1	4	2	2	0.478	4	0	4_2.gif
58	1	3	2	6	0	1	n/a	3_2.gif
59	1	1	2	4	0.051	4	1	1_2.gif
60	1	2	2	3	0.516	3	1	2_2.gif
61	1	4	2	6	0	1	n/a	4_2.gif
62	1	1	2	4	0.919	2	0	1_2.gif
63	1	4	2	4	0.006	4	1	4_2.gif
64.001	1	2	0	2	0.527	2	1	2_0.gif
65.001	1	4	0	4	0.501	4	1	4_0.gif
66.001	1	1	0	1	0.345	1	1	1_0.gif
67.001	1	4	0	4	0.307	4	1	4_0.gif
68.001	1	1	0	1	0.865	1	1	1_0.gif
69.001	1	2	0	1	0.005	2	0	2_0.gif
70.001	1	1	0	1	0.366	1	1	1_0.gif
71.001	1	3	0	3	0.283	3	1	3_0.gif
72.001	1	2	0	2	0.299	2	1	2_0.gif
73.001	1	1	0	1	0.338	1	1	1_0.gif
74.001	1	2	0	2	0.326	2	1	2_0.gif
75.001	1	1	0	1	0.322	1	1	1_0.gif
76.001	1	4	0	4	0.48	4	1	4_0.gif
77.001	1	2	0	2	0.34	2	1	2_0.gif
78.001	1	3	0	3	0.327	3	1	3_0.gif
79.001	1	2	0	2	0.363	2	1	2_0.gif
80.001	1	3	2	6	0	3	n/a	3_2.gif
81.001	1	1	2	6	0	2	n/a	1_2.gif
82.001	1	2	2	3	0.468	3	1	2_2.gif
83.001	1	4	2	6	0	1	n/a	4_2.gif
84.001	1	2	2	6	0	2	n/a	2_2.gif
85.001	1	4	2	4	0.25	4	1	4_2.gif
86.001	1	2	2	3	0.175	2	0	2_2.gif
87.001	1	3	2	2	0.007	4	0	3_2.gif
88.001	1	4	2	4	0.31	2	0	4_2.gif
89.001	1	3	2	2	0.193	3	0	3_2.gif
90.001	1	2	2	3	0.73	4	0	2_2.gif
91.001	1	1	2	2	0.812	3	0	1_2.gif
92.001	1	3	2	2	0.007	2	1	3_2.gif
93.001	1	4	2	3	0.007	1	0	4_2.gif
94.001	1	2	2	1	0.622	3	0	2_2.gif
95.001	1	1	2	6	0	4	n/a	1_2.gif
96.001	1	4	0	4	0.617	4	1	4_0.gif
97.001	1	2	0	2	0.397	2	1	2_0.gif
98.001	1	1	0	1	0.369	1	1	1_0.gif
99.001	1	2	0	2	0.394	2	1	2_0.gif
100.001	1	4	0	4	0.358	4	1	4_0.gif
101.001	1	2	0	2	0.316	2	1	2_0.gif
102.001	1	3	0	3	0.344	3	1	3_0.gif
103.001	1	4	0	4	0.462	4	1	4_0.gif
104.001	1	2	0	2	0.304	2	1	2_0.gif
105.001	1	3	0	3	0.319	3	1	3_0.gif
106.002	1	2	0	2	0.274	2	1	2_0.gif
107.002	1	4	0	4	0.338	4	1	4_0.gif
108.002	1	1	0	1	0.356	1	1	1_0.gif
109.002	1	3	0	3	0.416	3	1	3_0.gif
110.002	1	1	0	6	0	1	n/a	1_0.gif
111.002	1	2	0	1	0.008	2	0	2_0.gif
112.002	1	1	2	6	0	1	n/a	1_2.gif
113.002	1	3	2	6	0	2	n/a	3_2.gif
114.002	1	1	2	1	0.904	1	1	1_2.gif
115.002	1	3	2	1	0.009	3	0	3_2.gif
116.002	1	2	2	3	0.008	1	0	2_2.gif
117.002	1	3	2	2	0.503	3	0	3_2.gif
118.002	1	2	2	6	0	2	n/a	2_2.gif
119.002	1	1	2	3	0.047	3	1	1_2.gif
120.002	1	4	2	2	0.183	2	1	4_2.gif
121.002	1	1	2	4	0.458	1	0	1_2.gif
122.002	1	3	2	1	0.462	4	0	3_2.gif
123.002	1	2	2	3	0.479	1	0	2_2.gif
124.002	1	4	2	2	0.384	3	0	4_2.gif
125.002	1	2	2	6	0	2	n/a	2_2.gif
126.002	1	3	2	6	0	4	n/a	3_2.gif
127.002	1	2	2	4	0.164	2	0	2_2.gif
128.003	1	4	0	4	0.584	4	1	4_0.gif
129.003	1	2	0	2	0.289	2	1	2_0.gif
130.003	1	4	0	4	0.384	4	1	4_0.gif
131.003	1	1	0	1	0.459	1	1	1_0.gif
132.003	1	4	0	4	0.46	4	1	4_0.gif
133.003	1	2	0	2	0.33	2	1	2_0.gif
134.003	1	1	0	1	0.377	1	1	1_0.gif
135.003	1	3	0	3	0.315	3	1	3_0.gif
136.003	1	2	0	2	0.287	2	1	2_0.gif
137.003	1	4	0	4	0.411	4	1	4_0.gif
138.003	1	1	0	1	0.327	1	1	1_0.gif
139.003	1	2	0	2	0.272	2	1	2_0.gif
140.003	1	4	0	4	0.369	4	1	4_0.gif
141.003	1	2	0	2	0.355	2	1	2_0.gif
142.003	1	1	0	1	0.618	1	1	1_0.gif
143.003	1	3	0	3	0.497	3	1	3_0.gif
144.003	1	4	2	6	0	1	n/a	4_2.gif
145.003	1	1	2	6	0	3	n/a	1_2.gif
146.003	1	3	2	2	0.651	4	0	3_2.gif
147.003	1	1	2	2	0.007	1	0	1_2.gif
148.003	1	3	2	3	0.161	3	1	3_2.gif
149.003	1	1	2	6	0	1	n/a	1_2.gif
150.003	1	2	2	1	0.263	3	0	2_2.gif
151.003	1	3	2	3	0.183	1	0	3_2.gif
152.003	1	2	2	1	0.907	2	0	2_2.gif
153.003	1	1	2	1	0.007	3	0	1_2.gif
154.003	1	3	2	4	0.037	2	0	3_2.gif
155.003	1	4	2	2	0.71	1	0	4_2.gif
156.003	1	3	2	6	0	3	n/a	3_2.gif
157.003	1	4	2	1	0.131	4	0	4_2.gif
158.003	1	3	2	3	0.007	3	1	3_2.gif
159.003	1	1	2	6	0	4	n/a	1_2.gif
160.003	1	2	0	4	0.015	2	0	2_0.gif
161.003	1	4	0	4	0.478	4	1	4_0.gif
162.003	1	2	0	2	0.376	2	1	2_0.gif
163.003	1	3	0	3	0.422	3	1	3_0.gif
164.003	1	1	0	1	0.347	1	1	1_0.gif
165.003	1	4	0	4	0.272	4	1	4_0.gif
166.003	1	1	0	1	0.467	1	1	1_0.gif
167.003	1	3	0	3	0.441	3	1	3_0.gif
168.003	1	4	0	4	0.338	4	1	4_0.gif
169.003	1	1	0	1	0.392	1	1	1_0.gif
170.003	1	2	0	2	0.343	2	1	2_0.gif
171.003	1	1	0	1	0.402	1	1	1_0.gif
172.003	1	3	0	3	0.386	3	1	3_0.gif
173.003	1	4	0	4	0.222	4	1	4_0.gif
174.003	1	3	0	3	0.358	3	1	3_0.gif
175.003	1	4	0	4	0.356	4	1	4_0.gif
176.003	1	2	2	6	0	3	n/a	2_2.gif
177.003	1	4	2	6	0	4	n/a	4_2.gif
178.003	1	2	2	2	0.38	2	1	2_2.gif
179.003	1	3	2	4	0.848	4	1	3_2.gif
180.003	1	4	2	4	0.007	2	0	4_2.gif
181.003	1	3	2	2	0.007	3	0	3_2.gif
182.003	1	1	2	4	0.994	4	1	1_2.gif
183.003	1	3	2	4	0.006	3	0	3_2.gif
184.003	1	1	2	3	0.872	1	0	1_2.gif
185.003	1	4	2	3	0.006	3	1	4_2.gif
186.003	1	1	2	3	0.477	1	0	1_2.gif
187.003	1	4	2	1	0.575	4	0	4_2.gif
188.003	1	2	2	6	0	1	n/a	2_2.gif
189.003	1	4	2	4	0.006	4	1	4_2.gif
190.003	1	1	2	2	0.161	2	1	1_2.gif
191.003	1	3	2	1	0.235	4	0	3_2.gif
192.003	1	1	0	3	0.017	1	0	1_0.gif
193.003	1	2	0	2	0.379	2	1	2_0.gif
194.003	1	1	0	1	0.356	1	1	1_0.gif
195.003	1	2	0	2	0.326	2	1	2_0.gif
196.003	1	3	0	3	0.346	3	1	3_0.gif
197.003	1	2	0	2	0.258	2	1	2_0.gif
198.003	1	3	0	3	0.377	3	1	3_0.gif
199.003	1	2	0	2	0.315	2	1	2_0.gif
200.003	1	1	0	1	0.355	1	1	1_0.gif
201.003	1	3	0	3	0.732	3	1	3_0.gif
202.003	1	2	0	2	0.474	2	1	2_0.gif
203.003	1	4	0	4	0.314	4	1	4_0.gif
204.003	1	1	0	1	0.367	1	1	1_0.gif
205.003	1	3	0	3	0.603	3	1	3_0.gif
206.003	1	1	0	1	0.492	1	1	1_0.gif
207.003	1	2	0	2	0.296	2	1	2_0.gif
208.004	1	1	2	6	0	1	n/a	1_2.gif
209.004	1	2	2	6	0	2	n/a	2_2.gif
210.004	1	3	2	1	0.487	1	1	3_2.gif
211.004	1	4	2	2	0.885	2	1	4_2.gif
212.004	1	1	2	2	0.006	3	0	1_2.gif
213.004	1	3	2	6	0	4	n/a	3_2.gif
214.004	1	2	2	1	0.269	1	1	2_2.gif
215.004	1	1	2	3	0.183	3	1	1_2.gif
216.004	1	2	2	2	0.318	2	1	2_2.gif
217.004	1	3	2	6	0	1	n/a	3_2.gif
218.004	1	1	2	2	0.16	2	1	1_2.gif
219.004	1	3	2	1	0.006	3	0	3_2.gif
220.004	1	2	2	2	0.434	1	0	2_2.gif
221.004	1	1	2	3	0.797	3	1	1_2.gif
222.004	1	4	2	3	0.007	2	0	4_2.gif
223.004	1	3	2	1	0.007	1	1	3_2.gif
224.004	1	1	0	2	0.166	1	0	1_0.gif
225.004	1	4	0	4	0.315	4	1	4_0.gif
226.004	1	3	0	3	0.389	3	1	3_0.gif
227.004	1	4	0	2	0.325	4	0	4_0.gif
228.004	1	2	0	2	0.288	2	1	2_0.gif
229.004	1	3	0	3	0.314	3	1	3_0.gif
230.004	1	1	0	1	0.432	1	1	1_0.gif
231.004	1	2	0	2	0.349	2	1	2_0.gif
232.004	1	3	0	3	0.299	3	1	3_0.gif
233.004	1	2	0	2	0.315	2	1	2_0.gif
234.004	1	1	0	1	0.355	1	1	1_0.gif
235.004	1	4	0	4	0.293	4	1	4_0.gif
236.004	1	1	0	1	0.333	1	1	1_0.gif
237.004	1	4	0	2	0.517	4	0	4_0.gif
238.004	1	3	0	4	0.007	3	0	3_0.gif
239.004	1	2	0	2	0.376	2	1	2_0.gif
240.004	1	4	2	6	0	3	n/a	4_2.gif
241.004	1	1	2	6	0	2	n/a	1_2.gif
242.004	1	4	2	4	0.412	4	1	4_2.gif
243.004	1	3	2	6	0	1	n/a	3_2.gif
244.004	1	1	2	1	0.459	4	0	1_2.gif
245.004	1	2	2	3	0.388	3	1	2_2.gif
246.004	1	4	2	2	0.383	1	0	4_2.gif
247.004	1	1	2	3	0.538	2	0	1_2.gif
248.004	1	4	2	6	0	4	n/a	4_2.gif
249.004	1	2	2	4	0.888	1	0	2_2.gif
250.004	1	4	2	4	0.007	4	1	4_2.gif
251.004	1	1	2	1	0.077	2	0	1_2.gif
252.004	1	4	2	6	0	4	n/a	4_2.gif
253.004	1	1	2	4	0.028	1	0	1_2.gif
254.004	1	2	2	1	0.844	4	0	2_2.gif
255.004	1	1	2	1	0.007	1	1	1_2.gif
