onset	duration	nback_display	trial_type	response	response_time	correct_response	correct	stim_file
0	1	2	0	2	0.643	2	1	2_0.gif
1	1	4	0	4	0.665	4	1	4_0.gif
2	1	2	0	2	0.476	2	1	2_0.gif
3	1	4	0	4	0.592	4	1	4_0.gif
4	1	2	0	2	0.524	2	1	2_0.gif
5	1	3	0	3	0.592	3	1	3_0.gif
6	1	1	0	3	0.002	1	0	1_0.gif
7	1	3	0	3	0.265	3	1	3_0.gif
8	1	4	0	6	0	4	n/a	4_0.gif
9	1	3	0	4	0.459	3	0	3_0.gif
10	1	4	0	3	0.005	4	0	4_0.gif
11	1	1	0	1	0.811	1	1	1_0.gif
12	1	4	0	1	0.003	4	0	4_0.gif
13	1	1	0	4	0.003	1	0	1_0.gif
14	1	4	0	4	0.582	4	1	4_0.gif
15	1	2	0	2	0.496	2	1	2_0.gif
16.001	1	1	2	1	0.568	4	0	1_2.gif
17.001	1	2	2	6	0	2	n/a	2_2.gif
18.001	1	4	2	2	0.429	1	0	4_2.gif
19.001	1	1	2	1	0.202	2	0	1_2.gif
20.001	1	3	2	2	0.7	4	0	3_2.gif
21.001	1	4	2	6	0	1	n/a	4_2.gif
22.001	1	3	2	1	0.182	3	0	3_2.gif
23.001	1	4	2	6	0	4	n/a	4_2.gif
24.001	1	1	2	1	0.579	3	0	1_2.gif
25.001	1	2	2	3	0.376	4	0	2_2.gif
26.001	1	3	2	2	0.353	1	0	3_2.gif
27.001	1	1	2	4	0.992	2	0	1_2.gif
28.001	1	2	2	4	0.003	3	0	2_2.gif
29.001	1	4	2	2	0.296	1	0	4_2.gif
30.001	1	1	2	1	0.589	2	0	1_2.gif
31.001	1	3	2	6	0	4	n/a	3_2.gif
32.001	1	4	0	2	0.123	4	0	4_0.gif
33.001	1	3	0	3	0.86	3	1	3_0.gif
34.001	1	2	0	3	0.003	2	0	2_0.gif
35.001	1	3	0	3	0.537	3	1	3_0.gif
36.001	1	2	0	3	0.003	2	0	2_0.gif
37.001	1	3	0	3	0.468	3	1	3_0.gif
38.001	1	2	0	2	0.305	2	1	2_0.gif
39.001	1	1	0	1	0.519	1	1	1_0.gif
40.001	1	2	0	2	0.701	2	1	2_0.gif
41.001	1	4	0	2	0.003	4	0	4_0.gif
42.001	1	1	0	1	0.712	1	1	1_0.gif
43.001	1	2	0	1	0.003	2	0	2_0.gif
44.001	1	3	0	3	0.386	3	1	3_0.gif
45.001	1	2	0	2	0.282	2	1	2_0.gif
46.001	1	4	0	4	0.562	4	1	4_0.gif
47.001	1	1	0	1	0.47	1	1	1_0.gif
48.002	1	4	2	4	0.954	4	1	4_2.gif
49.002	1	3	2	4	0.002	1	0	3_2.gif
50.002	1	2	2	4	0.602	4	1	2_2.gif
51.002	1	3	2	3	0.978	3	1	3_2.gif
52.002	1	2	2	3	0.002	2	0	2_2.gif
53.002	1	1	2	4	0.094	3	0	1_2.gif
54.002	1	2	2	3	0.16	2	0	2_2.gif
55.002	1	3	2	2	0.617	1	0	3_2.gif
56.002	1	2	2	6	0	2	n/a	2_2.gif
57.002	1	1	2	4	0.186	3	0	1_2.gif
58.002	1	3	2	3	0.773	2	0	3_2.gif
59.002	1	4	2	3	0.002	1	0	4_2.gif
60.002	1	3	2	2	0.002	3	0	3_2.gif
61.002	1	2	2	1	0.283	4	0	2_2.gif
62.002	1	1	2	2	0.778	3	0	1_2.gif
63.002	1	2	2	2	0.002	2	1	2_2.gif
64.002	1	4	0	4	0.949	4	1	4_0.gif
65.002	1	2	0	4	0.002	2	0	2_0.gif
66.002	1	1	0	1	0.683	1	1	1_0.gif
67.002	1	3	0	3	0.604	3	1	3_0.gif
68.002	1	4	0	3	0.002	4	0	4_0.gif
69.002	1	3	0	3	0.46	3	1	3_0.gif
70.002	1	1	0	1	0.508	1	1	1_0.gif
71.002	1	4	0	4	0.603	4	1	4_0.gif
72.002	1	1	0	1	0.474	1	1	1_0.gif
73.002	1	2	0	2	0.482	2	1	2_0.gif
74.002	1	3	0	3	0.532	3	1	3_0.gif
75.002	1	1	0	1	0.575	1	1	1_0.gif
76.002	1	4	0	4	0.702	4	1	4_0.gif
77.002	1	3	0	4	0.003	3	0	3_0.gif
78.002	1	2	0	2	0.451	2	1	2_0.gif
79.002	1	4	0	4	0.665	4	1	4_0.gif
80.002	1	1	2	1	0.498	2	0	1_2.gif
81.002	1	4	2	6	0	4	n/a	4_2.gif
82.002	1	1	2	1	0.325	1	1	1_2.gif
83.002	1	4	2	4	0.647	4	1	4_2.gif
84.002	1	3	2	4	0.003	1	0	3_2.gif
85.002	1	4	2	3	0.616	4	0	4_2.gif
86.002	1	3	2	3	0.003	3	1	3_2.gif
87.002	1	4	2	6	0	4	n/a	4_2.gif
88.002	1	2	2	2	0.141	3	0	2_2.gif
89.002	1	4	2	4	0.274	4	1	4_2.gif
90.002	1	1	2	6	0	2	n/a	1_2.gif
91.002	1	2	2	1	0.171	4	0	2_2.gif
92.002	1	1	2	3	0.286	1	0	1_2.gif
93.002	1	3	2	2	0.835	2	1	3_2.gif
94.002	1	1	2	2	0.003	1	0	1_2.gif
95.002	1	2	2	3	0.699	3	1	2_2.gif
96.002	1	3	0	3	0.003	3	1	3_0.gif
97.002	1	4	0	3	0.244	4	0	4_0.gif
98.002	1	3	0	4	0.003	3	0	3_0.gif
99.002	1	2	0	2	0.563	2	1	2_0.gif
100.002	1	4	0	4	0.467	4	1	4_0.gif
101.002	1	3	0	3	0.499	3	1	3_0.gif
102.002	1	4	0	4	0.588	4	1	4_0.gif
103.002	1	2	0	2	0.595	2	1	2_0.gif
104.002	1	1	0	1	0.4	1	1	1_0.gif
105.002	1	2	0	2	0.541	2	1	2_0.gif
106.002	1	1	0	1	0.57	1	1	1_0.gif
107.002	1	4	0	4	0.493	4	1	4_0.gif
108.003	1	1	0	1	0.519	1	1	1_0.gif
109.003	1	3	0	3	0.451	3	1	3_0.gif
110.003	1	1	0	1	0.507	1	1	1_0.gif
111.003	1	3	0	3	0.639	3	1	3_0.gif
112.003	1	4	2	4	0.572	1	0	4_2.gif
113.003	1	3	2	6	0	3	n/a	3_2.gif
114.003	1	1	2	4	0.37	4	1	1_2.gif
115.003	1	3	2	3	0.246	3	1	3_2.gif
116.003	1	1	2	6	0	1	n/a	1_2.gif
117.003	1	4	2	3	0.096	3	1	4_2.gif
118.003	1	1	2	6	0	1	n/a	1_2.gif
119.003	1	2	2	4	0.896	4	1	2_2.gif
120.003	1	3	2	4	0.003	1	0	3_2.gif
121.003	1	4	2	6	0	2	n/a	4_2.gif
122.003	1	1	2	1	0.296	3	0	1_2.gif
123.003	1	4	2	6	0	4	n/a	4_2.gif
124.003	1	3	2	3	0.082	1	0	3_2.gif
125.003	1	2	2	2	0.003	4	0	2_2.gif
126.003	1	1	2	1	0.153	3	0	1_2.gif
127.003	1	4	2	4	0.683	2	0	4_2.gif
128.004	1	2	0	4	0.003	2	0	2_0.gif
129.004	1	3	0	2	0.003	3	0	3_0.gif
130.004	1	2	0	2	0.392	2	1	2_0.gif
131.004	1	4	0	4	0.302	4	1	4_0.gif
132.004	1	2	0	2	0.447	2	1	2_0.gif
133.004	1	4	0	4	0.587	4	1	4_0.gif
134.004	1	2	0	2	0.413	2	1	2_0.gif
135.004	1	3	0	3	0.55	3	1	3_0.gif
136.004	1	4	0	4	0.72	4	1	4_0.gif
137.004	1	1	0	1	0.581	1	1	1_0.gif
138.004	1	3	0	3	0.447	3	1	3_0.gif
139.004	1	4	0	4	0.798	4	1	4_0.gif
140.004	1	3	0	4	0.003	3	0	3_0.gif
141.004	1	4	0	3	0.003	4	0	4_0.gif
142.004	1	2	0	2	0.461	2	1	2_0.gif
143.004	1	1	0	1	0.696	1	1	1_0.gif
144.004	1	4	2	6	0	2	n/a	4_2.gif
145.004	1	1	2	4	0.924	1	0	1_2.gif
146.004	1	2	2	4	0.003	4	1	2_2.gif
147.004	1	4	2	1	0.003	1	1	4_2.gif
148.004	1	3	2	3	0.898	2	0	3_2.gif
149.004	1	1	2	3	0.003	4	0	1_2.gif
150.004	1	2	2	1	0.511	3	0	2_2.gif
151.004	1	3	2	2	0.223	1	0	3_2.gif
152.004	1	1	2	3	0.036	2	0	1_2.gif
153.004	1	3	2	4	0.003	3	0	3_2.gif
154.004	1	1	2	2	0.003	1	0	1_2.gif
155.004	1	3	2	3	0.86	3	1	3_2.gif
156.004	1	4	2	3	0.003	1	0	4_2.gif
157.004	1	1	2	2	0.357	3	0	1_2.gif
158.004	1	4	2	6	0	4	n/a	4_2.gif
159.004	1	3	2	1	0.213	1	1	3_2.gif
160.004	1	1	0	3	0.003	1	0	1_0.gif
161.004	1	2	0	1	0.003	2	0	2_0.gif
162.004	1	1	0	6	0	1	n/a	1_0.gif
163.004	1	2	0	2	0.727	2	1	2_0.gif
164.004	1	4	0	2	0.003	4	0	4_0.gif
165.004	1	3	0	4	0.003	3	0	3_0.gif
166.004	1	2	0	2	0.465	2	1	2_0.gif
167.004	1	1	0	1	0.366	1	1	1_0.gif
168.004	1	2	0	2	0.371	2	1	2_0.gif
169.004	1	1	0	1	0.324	1	1	1_0.gif
170.004	1	2	0	2	0.356	2	1	2_0.gif
171.004	1	3	0	3	0.601	3	1	3_0.gif
172.004	1	4	0	4	0.623	4	1	4_0.gif
173.004	1	3	0	3	0.466	3	1	3_0.gif
174.004	1	1	0	1	0.586	1	1	1_0.gif
175.004	1	2	0	2	0.371	2	1	2_0.gif
176.005	1	1	2	6	0	1	n/a	1_2.gif
177.005	1	3	2	6	0	2	n/a	3_2.gif
178.005	1	4	2	1	0.475	1	1	4_2.gif
179.005	1	1	2	3	0.552	3	1	1_2.gif
180.005	1	3	2	6	0	4	n/a	3_2.gif
181.005	1	1	2	4	0.471	1	0	1_2.gif
182.005	1	3	2	3	0.293	3	1	3_2.gif
183.005	1	1	2	2	0.517	1	0	1_2.gif
184.005	1	3	2	1	0.243	3	0	3_2.gif
185.005	1	1	2	6	0	1	n/a	1_2.gif
186.005	1	3	2	3	0.279	3	1	3_2.gif
187.005	1	2	2	2	0.68	1	0	2_2.gif
188.005	1	4	2	2	0.003	3	0	4_2.gif
189.005	1	2	2	1	0.182	2	0	2_2.gif
190.005	1	4	2	6	0	4	n/a	4_2.gif
191.005	1	2	2	4	0.265	2	0	2_2.gif
192.005	1	3	0	6	0	3	n/a	3_0.gif
193.005	1	1	0	3	0.025	1	0	1_0.gif
194.005	1	3	0	3	0.642	3	1	3_0.gif
195.005	1	4	0	3	0.003	4	0	4_0.gif
196.005	1	3	0	3	0.478	3	1	3_0.gif
197.005	1	4	0	4	0.52	4	1	4_0.gif
198.005	1	1	0	1	0.667	1	1	1_0.gif
199.005	1	4	0	4	0.601	4	1	4_0.gif
200.005	1	1	0	1	0.557	1	1	1_0.gif
201.005	1	4	0	4	0.393	4	1	4_0.gif
202.005	1	2	0	2	0.475	2	1	2_0.gif
203.005	1	1	0	1	0.655	1	1	1_0.gif
204.005	1	2	0	2	0.483	2	1	2_0.gif
205.005	1	4	0	4	0.682	4	1	4_0.gif
206.005	1	1	0	4	0.003	1	0	1_0.gif
207.005	1	3	0	3	0.71	3	1	3_0.gif
208.005	1	4	2	6	0	1	n/a	4_2.gif
209.005	1	3	2	4	0.457	3	0	3_2.gif
210.005	1	4	2	4	0.674	4	1	4_2.gif
211.005	1	1	2	6	0	3	n/a	1_2.gif
212.005	1	2	2	3	0.175	4	0	2_2.gif
213.005	1	3	2	1	0.451	1	1	3_2.gif
214.005	1	1	2	6	0	2	n/a	1_2.gif
215.005	1	2	2	1	0.908	3	0	2_2.gif
216.005	1	4	2	1	0.003	1	1	4_2.gif
217.006	1	1	2	4	0.501	2	0	1_2.gif
218.006	1	3	2	1	0.822	4	0	3_2.gif
219.006	1	4	2	1	0.002	1	1	4_2.gif
220.006	1	3	2	3	0.237	3	1	3_2.gif
221.006	1	2	2	2	0.317	4	0	2_2.gif
222.006	1	3	2	1	0.146	3	0	3_2.gif
223.006	1	2	2	3	0.279	2	0	2_2.gif
224.006	1	3	0	3	0.873	3	1	3_0.gif
225.006	1	2	0	3	0.003	2	0	2_0.gif
226.006	1	1	0	2	0.003	1	0	1_0.gif
227.006	1	2	0	2	0.544	2	1	2_0.gif
228.006	1	4	0	4	0.657	4	1	4_0.gif
229.006	1	1	0	1	0.537	1	1	1_0.gif
230.006	1	2	0	2	0.492	2	1	2_0.gif
231.006	1	3	0	3	0.405	3	1	3_0.gif
232.006	1	2	0	2	0.414	2	1	2_0.gif
233.006	1	4	0	4	0.466	4	1	4_0.gif
234.006	1	1	0	1	0.47	1	1	1_0.gif
235.006	1	4	0	4	0.787	4	1	4_0.gif
236.006	1	3	0	4	0.003	3	0	3_0.gif
237.006	1	2	0	2	0.332	2	1	2_0.gif
238.006	1	3	0	3	0.747	3	1	3_0.gif
239.006	1	2	0	3	0.003	2	0	2_0.gif
240.006	1	1	2	1	0.45	3	0	1_2.gif
241.006	1	2	2	2	0.544	2	1	2_2.gif
242.006	1	3	2	2	0.003	1	0	3_2.gif
243.006	1	2	2	2	0.702	2	1	2_2.gif
244.006	1	1	2	2	0.003	3	0	1_2.gif
245.006	1	3	2	4	0.99	2	0	3_2.gif
246.006	1	4	2	4	0.003	1	0	4_2.gif
247.006	1	3	2	1	0.004	3	0	3_2.gif
248.006	1	2	2	1	0.505	4	0	2_2.gif
249.006	1	1	2	2	0.003	3	0	1_2.gif
250.006	1	2	2	4	0.003	2	0	2_2.gif
251.006	1	4	2	6	0	1	n/a	4_2.gif
252.007	1	2	2	1	0.037	2	0	2_2.gif
253.007	1	1	2	6	0	4	n/a	1_2.gif
254.007	1	3	2	3	0.029	2	0	3_2.gif
255.007	1	4	2	4	0.432	1	0	4_2.gif
