onset	duration	nback_display	trial_type	response	response_time	correct_response	correct	stim_file
0	1	4	0	4	0.787	4	1	4_0.gif
1	1	3	0	4	0.005	3	0	3_0.gif
2	1	4	0	4	0.684	4	1	4_0.gif
3	1	1	0	1	0.534	1	1	1_0.gif
4	1	2	0	2	0.374	2	1	2_0.gif
5	1	3	0	3	0.618	3	1	3_0.gif
6	1	2	0	2	0.549	2	1	2_0.gif
7	1	1	0	1	0.505	1	1	1_0.gif
8	1	4	0	4	0.464	4	1	4_0.gif
9	1	1	0	1	0.445	1	1	1_0.gif
10	1	2	0	2	0.517	2	1	2_0.gif
11	1	3	0	3	0.521	3	1	3_0.gif
12	1	2	0	2	0.571	2	1	2_0.gif
13	1	3	0	3	0.509	3	1	3_0.gif
14	1	2	0	2	0.575	2	1	2_0.gif
15	1	3	0	3	0.489	3	1	3_0.gif
16.001	1	4	2	4	0.584	2	0	4_2.gif
17.001	1	3	2	6	0	3	n/a	3_2.gif
18.001	1	2	2	4	0.25	4	1	2_2.gif
19.001	1	4	2	3	0.057	3	1	4_2.gif
20.001	1	2	2	2	0.008	2	1	2_2.gif
21.001	1	3	2	2	0.482	4	0	3_2.gif
22.001	1	1	2	6	0	2	n/a	1_2.gif
23.001	1	2	2	3	0.144	3	1	2_2.gif
24.001	1	1	2	1	0.164	1	1	1_2.gif
25.001	1	3	2	2	0.593	2	1	3_2.gif
26.001	1	4	2	1	0.635	1	1	4_2.gif
27.001	1	1	2	3	0.531	3	1	1_2.gif
28.001	1	2	2	4	0.366	4	1	2_2.gif
29.001	1	4	2	1	0.262	1	1	4_2.gif
30.001	1	3	2	2	0.174	2	1	3_2.gif
31.001	1	1	2	4	0.271	4	1	1_2.gif
32.002	1	2	0	3	0.173	2	0	2_0.gif
33.002	1	4	0	2	0.205	4	0	4_0.gif
34.002	1	1	0	4	0.006	1	0	1_0.gif
35.002	1	3	0	4	0.803	3	0	3_0.gif
36.002	1	2	0	2	0.657	2	1	2_0.gif
37.002	1	1	0	1	0.498	1	1	1_0.gif
38.002	1	4	0	4	0.462	4	1	4_0.gif
39.002	1	2	0	2	0.604	2	1	2_0.gif
40.002	1	4	0	4	0.683	4	1	4_0.gif
41.002	1	1	0	1	0.494	1	1	1_0.gif
42.002	1	4	0	4	0.434	4	1	4_0.gif
43.002	1	3	0	3	0.537	3	1	3_0.gif
44.002	1	4	0	4	0.545	4	1	4_0.gif
45.002	1	2	0	2	0.435	2	1	2_0.gif
46.002	1	3	0	3	0.518	3	1	3_0.gif
47.002	1	1	0	1	0.536	1	1	1_0.gif
48.002	1	4	2	6	0	3	n/a	4_2.gif
49.002	1	1	2	6	0	1	n/a	1_2.gif
50.002	1	4	2	4	0.238	4	1	4_2.gif
51.002	1	2	2	1	0.007	1	1	2_2.gif
52.002	1	3	2	6	0	4	n/a	3_2.gif
53.002	1	2	2	2	0.108	2	1	2_2.gif
54.002	1	4	2	3	0.284	3	1	4_2.gif
55.002	1	3	2	2	0.171	2	1	3_2.gif
56.002	1	4	2	6	0	4	n/a	4_2.gif
57.002	1	1	2	3	0.238	3	1	1_2.gif
58.002	1	2	2	4	0.011	4	1	2_2.gif
59.002	1	4	2	1	0.016	1	1	4_2.gif
60.002	1	1	2	2	0.007	2	1	1_2.gif
61.002	1	4	2	4	0.216	4	1	4_2.gif
62.002	1	3	2	1	0.034	1	1	3_2.gif
63.002	1	1	2	4	0.273	4	1	1_2.gif
64.002	1	2	0	3	0.152	2	0	2_0.gif
65.002	1	4	0	2	0.068	4	0	4_0.gif
66.002	1	3	0	4	0.007	3	0	3_0.gif
67.002	1	4	0	3	0.007	4	0	4_0.gif
68.002	1	3	0	3	0.492	3	1	3_0.gif
69.002	1	4	0	4	0.474	4	1	4_0.gif
70.002	1	2	0	2	0.633	2	1	2_0.gif
71.002	1	4	0	4	0.493	4	1	4_0.gif
72.003	1	1	0	1	0.449	1	1	1_0.gif
73.003	1	4	0	4	0.437	4	1	4_0.gif
74.003	1	2	0	2	0.627	2	1	2_0.gif
75.003	1	1	0	1	0.537	1	1	1_0.gif
76.003	1	3	0	3	0.475	3	1	3_0.gif
77.003	1	1	0	1	0.556	1	1	1_0.gif
78.003	1	3	0	3	0.435	3	1	3_0.gif
79.003	1	2	0	2	0.461	2	1	2_0.gif
80.003	1	4	2	6	0	3	n/a	4_2.gif
81.003	1	1	2	6	0	2	n/a	1_2.gif
82.003	1	3	2	4	0.135	4	1	3_2.gif
83.003	1	2	2	1	0.009	1	1	2_2.gif
84.003	1	3	2	3	0.007	3	1	3_2.gif
85.003	1	4	2	2	0.006	2	1	4_2.gif
86.003	1	2	2	3	0.47	3	1	2_2.gif
87.003	1	1	2	4	0.191	4	1	1_2.gif
88.003	1	2	2	2	0.105	2	1	2_2.gif
89.003	1	3	2	1	0.007	1	1	3_2.gif
90.003	1	1	2	2	0.006	2	1	1_2.gif
91.003	1	2	2	2	0.869	3	0	2_2.gif
92.003	1	4	2	2	0.007	1	0	4_2.gif
93.004	1	3	2	6	0	2	n/a	3_2.gif
94.004	1	1	2	4	0.272	4	1	1_2.gif
95.004	1	3	2	3	0.05	3	1	3_2.gif
96.004	1	4	0	1	0.331	4	0	4_0.gif
97.004	1	2	0	4	0.007	2	0	2_0.gif
98.004	1	3	0	3	0.496	3	1	3_0.gif
99.004	1	1	0	1	0.519	1	1	1_0.gif
100.004	1	3	0	3	0.515	3	1	3_0.gif
101.004	1	4	0	4	0.567	4	1	4_0.gif
102.004	1	2	0	2	0.462	2	1	2_0.gif
103.004	1	1	0	1	0.542	1	1	1_0.gif
104.004	1	3	0	3	0.571	3	1	3_0.gif
105.004	1	1	0	1	0.584	1	1	1_0.gif
106.004	1	2	0	2	0.615	2	1	2_0.gif
107.004	1	1	0	1	0.471	1	1	1_0.gif
108.004	1	2	0	2	0.465	2	1	2_0.gif
109.004	1	4	0	4	0.534	4	1	4_0.gif
110.004	1	1	0	1	0.484	1	1	1_0.gif
111.004	1	4	0	4	0.447	4	1	4_0.gif
112.004	1	2	2	6	0	1	n/a	2_2.gif
113.004	1	3	2	6	0	4	n/a	3_2.gif
114.004	1	2	2	2	0.288	2	1	2_2.gif
115.004	1	4	2	3	0.091	3	1	4_2.gif
116.004	1	1	2	2	0.007	2	1	1_2.gif
117.004	1	3	2	1	0.704	4	0	3_2.gif
118.004	1	1	2	3	0.72	1	0	1_2.gif
119.004	1	2	2	1	0.648	3	0	2_2.gif
120.004	1	1	2	6	0	1	n/a	1_2.gif
121.004	1	3	2	1	0.292	2	0	3_2.gif
122.004	1	2	2	2	0.045	1	0	2_2.gif
123.004	1	3	2	1	0.007	3	0	3_2.gif
124.004	1	2	2	3	0.007	2	0	2_2.gif
125.005	1	3	2	6	0	3	n/a	3_2.gif
126.005	1	1	2	6	0	2	n/a	1_2.gif
127.005	1	4	2	3	0.486	3	1	4_2.gif
128.005	1	1	0	2	0.079	1	0	1_0.gif
129.005	1	2	0	1	0.007	2	0	2_0.gif
130.005	1	3	0	2	0.006	3	0	3_0.gif
131.005	1	4	0	4	0.635	4	1	4_0.gif
132.005	1	2	0	2	0.771	2	1	2_0.gif
133.005	1	1	0	1	0.485	1	1	1_0.gif
134.005	1	3	0	3	0.508	3	1	3_0.gif
135.005	1	4	0	4	0.32	4	1	4_0.gif
136.007	1	2	0	2	0.309	2	1	2_0.gif
137.007	1	3	0	3	0.569	3	1	3_0.gif
138.007	1	4	0	4	0.656	4	1	4_0.gif
139.007	1	1	0	1	0.442	1	1	1_0.gif
140.007	1	4	0	4	0.657	4	1	4_0.gif
141.007	1	2	0	2	0.511	2	1	2_0.gif
142.007	1	1	0	1	0.595	1	1	1_0.gif
143.007	1	2	0	2	0.575	2	1	2_0.gif
144.007	1	1	2	6	0	1	n/a	1_2.gif
145.007	1	2	2	6	0	2	n/a	2_2.gif
146.007	1	3	2	1	0.318	1	1	3_2.gif
147.007	1	1	2	2	0.047	2	1	1_2.gif
148.007	1	2	2	3	0.007	3	1	2_2.gif
149.007	1	4	2	1	0.006	1	1	4_2.gif
150.007	1	2	2	2	0.006	2	1	2_2.gif
151.007	1	4	2	1	0.007	4	0	4_2.gif
152.007	1	2	2	2	0.729	2	1	2_2.gif
153.007	1	3	2	6	0	4	n/a	3_2.gif
154.007	1	2	2	2	0.992	2	1	2_2.gif
155.007	1	3	2	2	0.007	3	0	3_2.gif
156.007	1	4	2	3	0.006	2	0	4_2.gif
157.008	1	2	2	2	0.006	3	0	2_2.gif
158.008	1	1	2	3	0.009	4	0	1_2.gif
159.008	1	4	2	6	0	2	n/a	4_2.gif
160.008	1	1	0	1	0.774	1	1	1_0.gif
161.008	1	3	0	3	0.55	3	1	3_0.gif
162.008	1	1	0	1	0.559	1	1	1_0.gif
163.008	1	3	0	3	0.58	3	1	3_0.gif
164.008	1	1	0	1	0.503	1	1	1_0.gif
165.008	1	2	0	2	0.615	2	1	2_0.gif
166.008	1	3	0	3	0.603	3	1	3_0.gif
167.008	1	2	0	2	0.553	2	1	2_0.gif
168.008	1	4	0	4	0.48	4	1	4_0.gif
169.008	1	3	0	3	0.511	3	1	3_0.gif
170.008	1	2	0	2	0.53	2	1	2_0.gif
171.008	1	4	0	4	0.508	4	1	4_0.gif
172.008	1	1	0	1	0.453	1	1	1_0.gif
173.008	1	4	0	4	0.536	4	1	4_0.gif
174.008	1	1	0	1	0.442	1	1	1_0.gif
175.008	1	2	0	2	0.443	2	1	2_0.gif
176.008	1	3	2	6	0	1	n/a	3_2.gif
177.008	1	4	2	6	0	2	n/a	4_2.gif
178.009	1	1	2	3	0.224	3	1	1_2.gif
179.009	1	4	2	4	0.056	4	1	4_2.gif
180.009	1	1	2	1	0.007	1	1	1_2.gif
181.009	1	3	2	1	0.834	4	0	3_2.gif
182.009	1	4	2	1	0.006	1	1	4_2.gif
183.009	1	1	2	3	0.007	3	1	1_2.gif
184.009	1	2	2	4	0.227	4	1	2_2.gif
185.009	1	1	2	1	0.141	1	1	1_2.gif
186.009	1	4	2	2	0.274	2	1	4_2.gif
187.009	1	3	2	1	0.007	1	1	3_2.gif
188.009	1	1	2	6	0	4	n/a	1_2.gif
189.009	1	3	2	3	0.857	3	1	3_2.gif
190.009	1	2	2	3	0.007	1	0	2_2.gif
191.009	1	3	2	1	0.006	3	0	3_2.gif
192.009	1	1	0	1	0.708	1	1	1_0.gif
193.009	1	3	0	3	0.47	3	1	3_0.gif
194.009	1	2	0	2	0.561	2	1	2_0.gif
195.009	1	3	0	3	0.622	3	1	3_0.gif
196.009	1	2	0	2	0.484	2	1	2_0.gif
197.009	1	3	0	3	0.527	3	1	3_0.gif
198.009	1	1	0	1	0.523	1	1	1_0.gif
199.009	1	3	0	3	0.62	3	1	3_0.gif
200.009	1	1	0	1	0.631	1	1	1_0.gif
201.009	1	4	0	4	0.477	4	1	4_0.gif
202.009	1	3	0	3	0.452	3	1	3_0.gif
203.009	1	4	0	4	0.472	4	1	4_0.gif
204.009	1	1	0	1	0.461	1	1	1_0.gif
205.009	1	2	0	2	0.494	2	1	2_0.gif
206.009	1	3	0	3	0.499	3	1	3_0.gif
207.009	1	2	0	2	0.463	2	1	2_0.gif
208.009	1	1	2	6	0	3	n/a	1_2.gif
209.009	1	4	2	6	0	2	n/a	4_2.gif
210.009	1	1	2	1	0.26	1	1	1_2.gif
211.009	1	2	2	4	0.028	4	1	2_2.gif
212.009	1	3	2	1	0.007	1	1	3_2.gif
213.009	1	2	2	2	0.544	2	1	2_2.gif
214.009	1	3	2	3	0.102	3	1	3_2.gif
215.009	1	2	2	2	0.007	2	1	2_2.gif
216.009	1	3	2	2	0.975	3	0	3_2.gif
217.009	1	4	2	2	0.007	2	1	4_2.gif
218.009	1	3	2	3	0.007	3	1	3_2.gif
219.009	1	2	2	4	0.573	4	1	2_2.gif
220.01	1	4	2	3	0.611	3	1	4_2.gif
221.01	1	2	2	2	0.191	2	1	2_2.gif
222.01	1	3	2	4	0.228	4	1	3_2.gif
223.01	1	1	2	2	0.232	2	1	1_2.gif
224.01	1	2	0	3	0.184	2	0	2_0.gif
225.01	1	1	0	1	0.713	1	1	1_0.gif
226.01	1	3	0	3	0.58	3	1	3_0.gif
227.01	1	4	0	4	0.553	4	1	4_0.gif
228.01	1	1	0	1	0.549	1	1	1_0.gif
229.01	1	2	0	2	0.457	2	1	2_0.gif
230.01	1	4	0	4	0.513	4	1	4_0.gif
231.01	1	3	0	3	0.479	3	1	3_0.gif
232.01	1	1	0	1	0.407	1	1	1_0.gif
233.01	1	2	0	2	0.405	2	1	2_0.gif
234.01	1	4	0	4	0.767	4	1	4_0.gif
235.01	1	1	0	3	0.753	1	0	1_0.gif
236.01	1	3	0	3	0.909	3	1	3_0.gif
237.01	1	2	0	3	0.007	2	0	2_0.gif
238.01	1	1	0	1	0.652	1	1	1_0.gif
239.01	1	4	0	4	0.6	4	1	4_0.gif
240.01	1	2	2	6	0	1	n/a	2_2.gif
241.011	1	4	2	6	0	4	n/a	4_2.gif
242.011	1	1	2	2	0.196	2	1	1_2.gif
243.011	1	4	2	4	0.006	4	1	4_2.gif
244.011	1	3	2	1	0.005	1	1	3_2.gif
245.011	1	4	2	4	0.005	4	1	4_2.gif
246.011	1	2	2	3	0.303	3	1	2_2.gif
247.011	1	3	2	4	0.169	4	1	3_2.gif
248.011	1	1	2	6	0	2	n/a	1_2.gif
249.011	1	4	2	6	0	3	n/a	4_2.gif
250.011	1	1	2	1	0.182	1	1	1_2.gif
251.011	1	4	2	4	0.027	4	1	4_2.gif
252.011	1	2	2	1	0.008	1	1	2_2.gif
253.011	1	3	2	4	0.005	4	1	3_2.gif
254.011	1	2	2	2	0.19	2	1	2_2.gif
255.011	1	4	2	3	0.006	3	1	4_2.gif
