onset	duration	nback_display	trial_type	response	response_time	correct_response	correct	stim_file
0	1	3	0	3	0.873	3	1	3_0.gif
1	1	2	0	3	0.006	2	0	2_0.gif
2	1	3	0	3	0.63	3	1	3_0.gif
3	1	2	0	2	0.595	2	1	2_0.gif
4	1	3	0	3	0.695	3	1	3_0.gif
5	1	4	0	4	0.669	4	1	4_0.gif
6	1	3	0	3	0.694	3	1	3_0.gif
7	1	2	0	2	0.579	2	1	2_0.gif
8	1	3	0	3	0.447	3	1	3_0.gif
9	1	4	0	4	0.593	4	1	4_0.gif
10	1	1	0	1	0.545	1	1	1_0.gif
11	1	2	0	2	0.498	2	1	2_0.gif
12	1	1	0	1	0.573	1	1	1_0.gif
13	1	2	0	2	0.483	2	1	2_0.gif
14	1	1	0	1	0.477	1	1	1_0.gif
15	1	2	0	2	0.337	2	1	2_0.gif
16	1	4	2	6	0	1	n/a	4_2.gif
17	1	3	2	6	0	2	n/a	3_2.gif
18	1	2	2	4	0.163	4	1	2_2.gif
19	1	1	2	3	0.007	3	1	1_2.gif
20	1	4	2	2	0.143	2	1	4_2.gif
21	1	1	2	1	0.549	1	1	1_2.gif
22	1	2	2	1	0.007	4	0	2_2.gif
23	1	1	2	1	0.365	1	1	1_2.gif
24	1	4	2	2	0.206	2	1	4_2.gif
25	1	2	2	1	0.345	1	1	2_2.gif
26	1	4	2	6	0	4	n/a	4_2.gif
27	1	1	2	2	0.307	2	1	1_2.gif
28	1	3	2	4	0.578	4	1	3_2.gif
29	1	4	2	1	0.242	1	1	4_2.gif
30	1	2	2	3	0.093	3	1	2_2.gif
31	1	1	2	4	0.239	4	1	1_2.gif
32	1	4	0	2	0.068	4	0	4_0.gif
33	1	3	0	4	0.007	3	0	3_0.gif
34	1	4	0	4	0.499	4	1	4_0.gif
35.001	1	2	0	2	0.497	2	1	2_0.gif
36.001	1	4	0	4	0.47	4	1	4_0.gif
37.001	1	3	0	3	0.388	3	1	3_0.gif
38.001	1	2	0	2	0.424	2	1	2_0.gif
39.001	1	3	0	3	0.382	3	1	3_0.gif
40.001	1	1	0	1	0.423	1	1	1_0.gif
41.001	1	2	0	2	0.394	2	1	2_0.gif
42.001	1	1	0	1	0.417	1	1	1_0.gif
43.001	1	3	0	3	0.475	3	1	3_0.gif
44.001	1	4	0	4	0.481	4	1	4_0.gif
45.001	1	3	0	3	0.465	3	1	3_0.gif
46.001	1	1	0	1	0.525	1	1	1_0.gif
47.001	1	2	0	2	0.391	2	1	2_0.gif
48.001	1	3	2	6	0	1	n/a	3_2.gif
49.001	1	1	2	6	0	2	n/a	1_2.gif
50.001	1	3	2	3	0.402	3	1	3_2.gif
51.001	1	4	2	1	0.294	1	1	4_2.gif
52.001	1	1	2	4	0.559	3	0	1_2.gif
53.001	1	3	2	1	0.477	4	0	3_2.gif
54.001	1	4	2	3	0.65	1	0	4_2.gif
55.001	1	3	2	6	0	3	n/a	3_2.gif
56.003	1	2	2	4	0.159	4	1	2_2.gif
57.003	1	4	2	1	0.009	3	0	4_2.gif
58.003	1	2	2	2	0.007	2	1	2_2.gif
59.003	1	1	2	2	0.713	4	0	1_2.gif
60.003	1	4	2	2	0.007	2	1	4_2.gif
61.003	1	2	2	1	0.007	1	1	2_2.gif
62.003	1	4	2	4	0.027	4	1	4_2.gif
63.003	1	2	2	2	0.007	2	1	2_2.gif
64.003	1	3	0	4	0.131	3	0	3_0.gif
65.003	1	1	0	3	0.007	1	0	1_0.gif
66.003	1	3	0	3	0.735	3	1	3_0.gif
67.003	1	4	0	4	0.717	4	1	4_0.gif
68.003	1	3	0	3	0.549	3	1	3_0.gif
69.003	1	1	0	1	0.58	1	1	1_0.gif
70.003	1	4	0	4	0.515	4	1	4_0.gif
71.003	1	2	0	2	0.443	2	1	2_0.gif
72.003	1	4	0	6	0	4	n/a	4_0.gif
73.003	1	2	0	2	0.415	2	1	2_0.gif
74.003	1	1	0	1	0.343	1	1	1_0.gif
75.003	1	4	0	4	0.47	4	1	4_0.gif
76.003	1	3	0	3	0.494	3	1	3_0.gif
77.003	1	4	0	4	0.48	4	1	4_0.gif
78.003	1	2	0	2	0.459	2	1	2_0.gif
79.003	1	1	0	1	0.387	1	1	1_0.gif
80.003	1	2	2	6	0	2	n/a	2_2.gif
81.003	1	3	2	2	0.921	1	0	3_2.gif
82.003	1	1	2	2	0.007	2	1	1_2.gif
83.003	1	2	2	1	0.769	3	0	2_2.gif
84.003	1	3	2	1	0.007	1	1	3_2.gif
85.003	1	2	2	3	0.847	2	0	2_2.gif
86.003	1	4	2	3	0.007	3	1	4_2.gif
87.004	1	1	2	2	0.007	2	1	1_2.gif
88.004	1	2	2	4	0.009	4	1	2_2.gif
89.004	1	1	2	1	0.006	1	1	1_2.gif
90.004	1	3	2	3	0.69	2	0	3_2.gif
91.004	1	4	2	1	0.37	1	1	4_2.gif
92.004	1	2	2	4	0.006	3	0	2_2.gif
93.004	1	3	2	2	0.006	4	0	3_2.gif
94.004	1	2	2	3	0.78	2	0	2_2.gif
95.004	1	1	2	2	0.738	3	0	1_2.gif
96.004	1	4	0	1	0.444	4	0	4_0.gif
97.004	1	2	0	4	0.007	2	0	2_0.gif
98.004	1	3	0	3	0.344	3	1	3_0.gif
99.004	1	2	0	2	0.474	2	1	2_0.gif
100.004	1	4	0	6	0	4	n/a	4_0.gif
101.004	1	3	0	3	0.488	3	1	3_0.gif
102.004	1	4	0	4	0.927	4	1	4_0.gif
103.004	1	1	0	4	0.007	1	0	1_0.gif
104.004	1	2	0	2	0.278	2	1	2_0.gif
105.004	1	1	0	1	0.599	1	1	1_0.gif
106.004	1	4	0	4	0.483	4	1	4_0.gif
107.004	1	1	0	1	0.521	1	1	1_0.gif
108.004	1	3	0	3	0.448	3	1	3_0.gif
109.004	1	4	0	4	0.61	4	1	4_0.gif
110.004	1	2	0	2	0.476	2	1	2_0.gif
111.004	1	3	0	3	0.529	3	1	3_0.gif
112.005	1	1	2	6	0	2	n/a	1_2.gif
113.005	1	2	2	1	0.713	3	0	2_2.gif
114.005	1	1	2	1	0.006	1	1	1_2.gif
115.005	1	3	2	2	0.029	2	1	3_2.gif
116.005	1	4	2	1	0.006	1	1	4_2.gif
117.005	1	2	2	6	0	3	n/a	2_2.gif
118.005	1	4	2	6	0	4	n/a	4_2.gif
119.005	1	1	2	2	0.128	2	1	1_2.gif
120.005	1	4	2	4	0.075	4	1	4_2.gif
121.005	1	2	2	1	0.06	1	1	2_2.gif
122.005	1	1	2	4	0.332	4	1	1_2.gif
123.005	1	2	2	2	0.026	2	1	2_2.gif
124.005	1	1	2	1	0.115	1	1	1_2.gif
125.005	1	2	2	2	0.084	2	1	2_2.gif
126.005	1	1	2	1	0.245	1	1	1_2.gif
127.005	1	3	2	2	0.192	2	1	3_2.gif
128.005	1	4	0	1	0.539	4	0	4_0.gif
129.005	1	1	0	1	0.551	1	1	1_0.gif
130.005	1	2	0	2	0.364	2	1	2_0.gif
131.005	1	4	0	4	0.598	4	1	4_0.gif
132.005	1	1	0	1	0.363	1	1	1_0.gif
133.005	1	4	0	4	0.502	4	1	4_0.gif
134.005	1	3	0	3	0.534	3	1	3_0.gif
135.005	1	1	0	1	0.375	1	1	1_0.gif
136.005	1	2	0	2	0.374	2	1	2_0.gif
137.005	1	3	0	3	0.608	3	1	3_0.gif
138.005	1	4	0	4	0.492	4	1	4_0.gif
139.005	1	3	0	3	0.542	3	1	3_0.gif
140.005	1	1	0	1	0.41	1	1	1_0.gif
141.005	1	3	0	3	0.672	3	1	3_0.gif
142.005	1	1	0	1	0.548	1	1	1_0.gif
143.005	1	4	0	4	0.424	4	1	4_0.gif
144.006	1	1	2	6	0	1	n/a	1_2.gif
145.006	1	4	2	6	0	4	n/a	4_2.gif
146.006	1	1	2	1	0.023	1	1	1_2.gif
147.006	1	2	2	4	0.04	4	1	2_2.gif
148.006	1	1	2	1	0.006	1	1	1_2.gif
149.006	1	3	2	2	0.088	2	1	3_2.gif
150.006	1	2	2	1	0.006	1	1	2_2.gif
151.006	1	1	2	3	0.009	3	1	1_2.gif
152.006	1	3	2	2	0.006	2	1	3_2.gif
153.006	1	2	2	1	0.006	1	1	2_2.gif
154.006	1	1	2	3	0.007	3	1	1_2.gif
155.006	1	2	2	2	0.17	2	1	2_2.gif
156.006	1	1	2	1	0.006	1	1	1_2.gif
157.006	1	4	2	6	0	2	n/a	4_2.gif
158.006	1	3	2	2	0.284	1	0	3_2.gif
159.006	1	1	2	4	0.006	4	1	1_2.gif
160.006	1	2	0	2	0.825	2	1	2_0.gif
161.006	1	4	0	2	0.009	4	0	4_0.gif
162.006	1	2	0	2	0.501	2	1	2_0.gif
163.006	1	3	0	3	0.475	3	1	3_0.gif
164.006	1	4	0	4	0.623	4	1	4_0.gif
165.006	1	2	0	2	0.465	2	1	2_0.gif
166.006	1	4	0	4	0.482	4	1	4_0.gif
167.006	1	2	0	2	0.462	2	1	2_0.gif
168.006	1	4	0	4	0.555	4	1	4_0.gif
169.006	1	1	0	1	0.573	1	1	1_0.gif
170.006	1	2	0	2	0.367	2	1	2_0.gif
171.006	1	1	0	1	0.479	1	1	1_0.gif
172.006	1	4	0	4	0.55	4	1	4_0.gif
173.006	1	2	0	2	0.387	2	1	2_0.gif
174.006	1	3	0	3	0.445	3	1	3_0.gif
175.006	1	2	0	2	0.363	2	1	2_0.gif
176.006	1	3	2	6	0	3	n/a	3_2.gif
177.006	1	4	2	6	0	2	n/a	4_2.gif
178.006	1	3	2	3	0.244	3	1	3_2.gif
179.006	1	4	2	4	0.219	4	1	4_2.gif
180.006	1	2	2	3	0.198	3	1	2_2.gif
181.006	1	3	2	4	0.467	4	1	3_2.gif
182.006	1	4	2	2	0.26	2	1	4_2.gif
183.006	1	2	2	3	0.277	3	1	2_2.gif
184.006	1	4	2	4	0.275	4	1	4_2.gif
185.006	1	3	2	2	0.363	2	1	3_2.gif
186.006	1	4	2	4	0.221	4	1	4_2.gif
187.006	1	2	2	3	0.254	3	1	2_2.gif
188.006	1	3	2	2	0.339	4	0	3_2.gif
189.006	1	4	2	3	0.576	2	0	4_2.gif
190.006	1	1	2	4	0.424	3	0	1_2.gif
191.006	1	4	2	1	0.382	4	0	4_2.gif
192.008	1	3	0	3	0.756	3	1	3_0.gif
193.008	1	2	0	2	0.473	2	1	2_0.gif
194.008	1	1	0	1	0.457	1	1	1_0.gif
195.008	1	3	0	3	0.525	3	1	3_0.gif
196.008	1	1	0	1	0.472	1	1	1_0.gif
197.008	1	3	0	3	0.554	3	1	3_0.gif
198.008	1	4	0	4	0.58	4	1	4_0.gif
199.008	1	2	0	2	0.32	2	1	2_0.gif
200.008	1	1	0	1	0.442	1	1	1_0.gif
201.008	1	2	0	2	0.344	2	1	2_0.gif
202.008	1	3	0	3	0.544	3	1	3_0.gif
203.008	1	2	0	2	0.469	2	1	2_0.gif
204.008	1	4	0	4	0.403	4	1	4_0.gif
205.008	1	3	0	3	0.553	3	1	3_0.gif
206.008	1	2	0	2	0.567	2	1	2_0.gif
207.008	1	3	0	3	0.787	3	1	3_0.gif
208.008	1	2	2	6	0	2	n/a	2_2.gif
209.008	1	3	2	6	0	3	n/a	3_2.gif
210.008	1	4	2	2	0.487	2	1	4_2.gif
211.008	1	3	2	3	0.202	3	1	3_2.gif
212.008	1	2	2	4	0.234	4	1	2_2.gif
213.008	1	3	2	3	0.069	3	1	3_2.gif
214.008	1	4	2	2	0.01	2	1	4_2.gif
215.008	1	1	2	3	0.007	3	1	1_2.gif
216.008	1	2	2	1	0.841	4	0	2_2.gif
217.008	1	1	2	1	0.007	1	1	1_2.gif
218.008	1	2	2	1	0.76	2	0	2_2.gif
219.008	1	1	2	2	0.753	1	0	1_2.gif
220.008	1	2	2	6	0	2	n/a	2_2.gif
221.009	1	4	2	1	0.396	1	1	4_2.gif
222.009	1	3	2	2	0.026	2	1	3_2.gif
223.009	1	2	2	4	0.275	4	1	2_2.gif
224.009	1	1	0	3	0.008	1	0	1_0.gif
225.009	1	4	0	1	0.006	4	0	4_0.gif
226.009	1	1	0	1	0.629	1	1	1_0.gif
227.009	1	2	0	2	0.437	2	1	2_0.gif
228.009	1	1	0	1	0.489	1	1	1_0.gif
229.009	1	4	0	4	0.536	4	1	4_0.gif
230.009	1	2	0	2	0.421	2	1	2_0.gif
231.009	1	4	0	4	0.591	4	1	4_0.gif
232.009	1	1	0	1	0.654	1	1	1_0.gif
233.009	1	3	0	3	0.622	3	1	3_0.gif
234.009	1	4	0	4	0.554	4	1	4_0.gif
235.009	1	2	0	2	0.688	2	1	2_0.gif
236.009	1	1	0	1	0.481	1	1	1_0.gif
237.009	1	4	0	6	0	4	n/a	4_0.gif
238.009	1	3	0	3	0.522	3	1	3_0.gif
239.009	1	4	0	4	0.576	4	1	4_0.gif
240.009	1	2	2	6	0	3	n/a	2_2.gif
241.009	1	4	2	6	0	4	n/a	4_2.gif
242.009	1	3	2	2	0.391	2	1	3_2.gif
243.009	1	2	2	4	0.186	4	1	2_2.gif
244.009	1	3	2	3	0.142	3	1	3_2.gif
245.009	1	1	2	2	0.27	2	1	1_2.gif
246.009	1	2	2	1	0.377	3	0	2_2.gif
247.009	1	1	2	2	0.655	1	0	1_2.gif
248.009	1	3	2	3	0.754	2	0	3_2.gif
249.009	1	4	2	1	0.646	1	1	4_2.gif
250.009	1	3	2	3	0.494	3	1	3_2.gif
251.009	1	1	2	1	0.545	4	0	1_2.gif
252.009	1	2	2	2	0.594	3	0	2_2.gif
253.009	1	3	2	6	0	1	n/a	3_2.gif
254.009	1	1	2	6	0	2	n/a	1_2.gif
255.01	1	3	2	3	0.145	3	1	3_2.gif
