onset	duration	nback_display	trial_type	response	response_time	correct_response	correct	stim_file
0	1	3	0	0	0	3	0	3_0.gif
1	1	4	0	3	0.018	4	0	4_0.gif
2	1	3	0	4	0.003	3	0	3_0.gif
3	1	1	0	1	0.787	1	1	1_0.gif
4	1	3	0	3	0.768	3	1	3_0.gif
5	1	4	0	4	0.518	4	1	4_0.gif
6	1	2	0	2	0.561	2	1	2_0.gif
7	1	4	0	4	0.656	4	1	4_0.gif
8	1	1	0	1	0.698	1	1	1_0.gif
9	1	2	0	2	0.654	2	1	2_0.gif
10	1	1	0	1	0.787	1	1	1_0.gif
11	1	2	0	1	0.002	2	0	2_0.gif
12	1	1	0	1	0.69	1	1	1_0.gif
13	1	4	0	4	0.733	4	1	4_0.gif
14	1	3	0	3	0.704	3	1	3_0.gif
15	1	2	0	2	0.675	2	1	2_0.gif
16	1	3	2	2	0.675	3	1	3_2.gif
17	1	4	2	2	0.675	2	1	4_2.gif
18	1	2	2	3	0.352	3	1	2_2.gif
19	1	4	2	4	0.387	4	1	4_2.gif
20	1	1	2	2	0.434	2	1	1_2.gif
21	1	2	2	4	0.42	4	1	2_2.gif
22	1	3	2	1	0.55	1	1	3_2.gif
23	1	1	2	2	0.628	2	1	1_2.gif
24	1	4	2	3	0.711	3	1	4_2.gif
25	1	3	2	1	0.64	1	1	3_2.gif
26	1	4	2	4	0.657	4	1	4_2.gif
27	1	3	2	3	0.669	3	1	3_2.gif
28	1	2	2	4	0.704	4	1	2_2.gif
29	1	4	2	3	0.638	3	1	4_2.gif
30	1	3	2	2	0.611	2	1	3_2.gif
31	1	2	2	4	0.669	4	1	2_2.gif
32	1	3	0	3	0.702	3	1	3_0.gif
33	1	1	0	1	0.989	1	1	1_0.gif
34	1	2	0	1	0.003	2	0	2_0.gif
35	1	4	0	2	0.098	4	0	4_0.gif
36	1	1	0	4	0.033	1	0	1_0.gif
37	1	2	0	1	0.004	2	0	2_0.gif
38	1	3	0	3	0.754	3	1	3_0.gif
39	1	2	0	2	0.679	2	1	2_0.gif
40	1	3	0	3	0.698	3	1	3_0.gif
41	1	2	0	2	0.617	2	1	2_0.gif
42	1	1	0	1	0.573	1	1	1_0.gif
43	1	3	0	3	0.612	3	1	3_0.gif
44	1	4	0	4	0.501	4	1	4_0.gif
45	1	3	0	3	0.637	3	1	3_0.gif
46	1	2	0	2	0.677	2	1	2_0.gif
47	1	4	0	4	0.571	4	1	4_0.gif
48.001	1	1	2	4	0.571	2	1	1_2.gif
49.001	1	3	2	4	0.571	4	1	3_2.gif
50.001	1	4	2	1	0.454	1	1	4_2.gif
51.001	1	3	2	3	0.418	3	1	3_2.gif
52.001	1	1	2	4	0.585	4	1	1_2.gif
53.001	1	3	2	3	0.551	3	1	3_2.gif
54.001	1	4	2	1	0.577	1	1	4_2.gif
55.001	1	3	2	3	0.558	3	1	3_2.gif
56.001	1	1	2	4	0.531	4	1	1_2.gif
57.001	1	4	2	3	0.518	3	1	4_2.gif
58.001	1	2	2	1	0.473	1	1	2_2.gif
59.001	1	4	2	4	0.478	4	1	4_2.gif
60.001	1	2	2	2	0.551	2	1	2_2.gif
61.001	1	1	2	4	0.552	4	1	1_2.gif
62.001	1	4	2	2	0.483	2	1	4_2.gif
63.001	1	1	2	4	0.591	1	0	1_2.gif
64.001	1	4	0	1	0.496	4	0	4_0.gif
65.001	1	3	0	3	0.973	3	1	3_0.gif
66.001	1	1	0	3	0.003	1	0	1_0.gif
67.001	1	2	0	1	0.003	2	0	2_0.gif
68.001	1	1	0	2	0.003	1	0	1_0.gif
69.001	1	2	0	1	0.003	2	0	2_0.gif
70.001	1	4	0	2	0.003	4	0	4_0.gif
71.001	1	1	0	4	0.003	1	0	1_0.gif
72.001	1	3	0	1	0.034	3	0	3_0.gif
73.001	1	1	0	3	0.003	1	0	1_0.gif
74.001	1	3	0	1	0.011	3	0	3_0.gif
75.001	1	1	0	3	0.14	1	0	1_0.gif
76.001	1	2	0	1	0.004	2	0	2_0.gif
77.001	1	3	0	2	0.004	3	0	3_0.gif
78.001	1	2	0	3	0.003	2	0	2_0.gif
79.001	1	1	0	2	0.004	1	0	1_0.gif
80.001	1	4	2	1	0.003	2	0	4_2.gif
81.001	1	2	2	1	0.003	1	0	2_2.gif
82.001	1	3	2	4	0.298	4	1	3_2.gif
83.001	1	4	2	2	0.473	2	1	4_2.gif
84.001	1	2	2	3	0.392	3	1	2_2.gif
85.001	1	4	2	4	0.307	4	1	4_2.gif
86.001	1	3	2	2	0.232	2	1	3_2.gif
87.001	1	1	2	4	0.296	4	1	1_2.gif
88.001	1	4	2	3	0.446	3	1	4_2.gif
89.001	1	1	2	1	0.381	1	1	1_2.gif
90.001	1	3	2	4	0.336	4	1	3_2.gif
91.001	1	1	2	1	0.393	1	1	1_2.gif
92.001	1	2	2	3	0.348	3	1	2_2.gif
93.001	1	3	2	1	0.342	1	1	3_2.gif
94.001	1	1	2	2	0.321	2	1	1_2.gif
95.001	1	2	2	3	0.365	3	1	2_2.gif
96.002	1	1	0	1	0.492	1	1	1_0.gif
97.002	1	3	0	3	0.653	3	1	3_0.gif
98.002	1	4	0	4	0.703	4	1	4_0.gif
99.002	1	2	0	2	0.788	2	1	2_0.gif
100.002	1	4	0	2	0.003	4	0	4_0.gif
101.002	1	1	0	4	0.003	1	0	1_0.gif
102.002	1	4	0	1	0.003	4	0	4_0.gif
103.002	1	2	0	2	0.686	2	1	2_0.gif
104.002	1	4	0	4	0.69	4	1	4_0.gif
105.002	1	2	0	2	0.797	2	1	2_0.gif
106.002	1	1	0	2	0.003	1	0	1_0.gif
107.002	1	2	0	1	0.003	2	0	2_0.gif
108.002	1	3	0	2	0.003	3	0	3_0.gif
109.002	1	1	0	3	0.007	1	0	1_0.gif
110.002	1	2	0	1	0.003	2	0	2_0.gif
111.002	1	1	0	2	0.003	1	0	1_0.gif
112.002	1	2	2	1	0.003	2	0	2_2.gif
113.002	1	3	2	1	0.003	1	0	3_2.gif
114.002	1	1	2	2	0.076	2	1	1_2.gif
115.002	1	2	2	3	0.226	3	1	2_2.gif
116.002	1	3	2	1	0.324	1	1	3_2.gif
117.002	1	4	2	2	0.41	2	1	4_2.gif
118.002	1	3	2	3	0.388	3	1	3_2.gif
119.002	1	1	2	4	0.485	4	1	1_2.gif
120.002	1	2	2	3	0.49	3	1	2_2.gif
121.002	1	1	2	1	0.451	1	1	1_2.gif
122.002	1	3	2	2	0.376	2	1	3_2.gif
123.002	1	1	2	1	0.379	1	1	1_2.gif
124.002	1	3	2	3	0.391	3	1	3_2.gif
125.002	1	4	2	1	0.439	1	1	4_2.gif
126.002	1	3	2	3	0.361	3	1	3_2.gif
127.002	1	1	2	4	0.296	4	1	1_2.gif
128.003	1	4	0	3	0.442	4	0	4_0.gif
129.003	1	2	0	2	0.644	2	1	2_0.gif
130.003	1	1	0	1	0.716	1	1	1_0.gif
131.003	1	3	0	3	0.893	3	1	3_0.gif
132.003	1	2	0	3	0.003	2	0	2_0.gif
133.003	1	1	0	2	0.021	1	0	1_0.gif
134.003	1	4	0	1	0.003	4	0	4_0.gif
135.003	1	1	0	4	0.003	1	0	1_0.gif
136.003	1	4	0	4	0.676	4	1	4_0.gif
137.003	1	2	0	4	0.003	2	0	2_0.gif
138.003	1	3	0	3	0.522	3	1	3_0.gif
139.003	1	4	0	4	0.57	4	1	4_0.gif
140.003	1	2	0	2	0.51	2	1	2_0.gif
141.003	1	4	0	4	0.618	4	1	4_0.gif
142.003	1	2	0	2	0.582	2	1	2_0.gif
143.003	1	4	0	4	0.619	4	1	4_0.gif
144.003	1	1	2	4	0.619	2	1	1_2.gif
145.003	1	2	2	4	0.619	4	1	2_2.gif
146.003	1	1	2	1	0.291	1	1	1_2.gif
147.003	1	3	2	2	0.436	2	1	3_2.gif
148.003	1	2	2	1	0.455	1	1	2_2.gif
149.003	1	4	2	3	0.452	3	1	4_2.gif
150.003	1	2	2	2	0.458	2	1	2_2.gif
151.003	1	3	2	4	0.437	4	1	3_2.gif
152.003	1	4	2	2	0.466	2	1	4_2.gif
153.003	1	3	2	3	0.436	3	1	3_2.gif
154.003	1	4	2	4	0.342	4	1	4_2.gif
155.003	1	1	2	3	0.276	3	1	1_2.gif
156.003	1	2	2	4	0.403	4	1	2_2.gif
157.003	1	3	2	1	0.488	1	1	3_2.gif
158.003	1	1	2	2	0.506	2	1	1_2.gif
159.003	1	2	2	3	0.441	3	1	2_2.gif
160.003	1	4	0	3	0.441	4	1	4_0.gif
161.003	1	3	0	3	0.82	3	1	3_0.gif
162.003	1	4	0	3	0.003	4	0	4_0.gif
163.003	1	2	0	4	0.004	2	0	2_0.gif
164.003	1	3	0	2	0.003	3	0	3_0.gif
165.003	1	4	0	4	0.628	4	1	4_0.gif
166.003	1	1	0	1	0.635	1	1	1_0.gif
167.003	1	4	0	4	0.581	4	1	4_0.gif
168.003	1	3	0	3	0.545	3	1	3_0.gif
169.003	1	2	0	2	0.484	2	1	2_0.gif
170.003	1	3	0	3	0.534	3	1	3_0.gif
171.003	1	1	0	1	0.42	1	1	1_0.gif
172.003	1	4	0	4	0.541	4	1	4_0.gif
173.003	1	1	0	1	0.626	1	1	1_0.gif
174.003	1	2	0	2	0.558	2	1	2_0.gif
175.003	1	3	0	3	0.528	3	1	3_0.gif
176.003	1	2	2	2	0.734	2	1	2_2.gif
177.003	1	4	2	2	0.004	3	0	4_2.gif
178.003	1	2	2	2	0.788	2	1	2_2.gif
179.003	1	4	2	2	0.004	4	0	4_2.gif
180.003	1	3	2	4	0.004	2	0	3_2.gif
181.003	1	4	2	4	0.662	4	1	4_2.gif
182.003	1	3	2	3	0.553	3	1	3_2.gif
183.004	1	1	2	4	0.522	4	1	1_2.gif
184.004	1	3	2	3	0.502	3	1	3_2.gif
185.004	1	4	2	1	0.382	1	1	4_2.gif
186.004	1	2	2	3	0.393	3	1	2_2.gif
187.004	1	4	2	4	0.399	4	1	4_2.gif
188.004	1	1	2	2	0.272	2	1	1_2.gif
189.004	1	2	2	4	0.396	4	1	2_2.gif
190.004	1	1	2	1	0.365	1	1	1_2.gif
191.004	1	2	2	2	0.317	2	1	2_2.gif
192.004	1	1	0	1	0.352	1	1	1_0.gif
193.004	1	4	0	4	0.707	4	1	4_0.gif
194.004	1	3	0	3	0.798	3	1	3_0.gif
195.004	1	2	0	3	0.003	2	0	2_0.gif
196.004	1	3	0	3	0.652	3	1	3_0.gif
197.004	1	4	0	4	0.641	4	1	4_0.gif
198.004	1	2	0	2	0.606	2	1	2_0.gif
199.004	1	4	0	4	0.515	4	1	4_0.gif
200.004	1	1	0	1	0.491	1	1	1_0.gif
201.004	1	2	0	2	0.487	2	1	2_0.gif
202.004	1	3	0	3	0.518	3	1	3_0.gif
203.004	1	1	0	1	0.595	1	1	1_0.gif
204.004	1	4	0	4	0.59	4	1	4_0.gif
205.004	1	3	0	3	0.596	3	1	3_0.gif
206.004	1	4	0	4	0.644	4	1	4_0.gif
207.004	1	3	0	3	0.713	3	1	3_0.gif
208.004	1	2	2	3	0.713	4	1	2_2.gif
209.004	1	4	2	3	0.713	3	1	4_2.gif
210.004	1	3	2	2	0.441	2	1	3_2.gif
211.004	1	2	2	4	0.447	4	1	2_2.gif
212.004	1	3	2	3	0.609	3	1	3_2.gif
213.004	1	1	2	2	0.409	2	1	1_2.gif
214.004	1	2	2	3	0.293	3	1	2_2.gif
215.004	1	4	2	1	0.466	1	1	4_2.gif
216.004	1	1	2	2	0.378	2	1	1_2.gif
217.004	1	2	2	4	0.211	4	1	2_2.gif
218.004	1	3	2	1	0.124	1	1	3_2.gif
219.004	1	2	2	2	0.208	2	1	2_2.gif
220.004	1	3	2	3	0.122	3	1	3_2.gif
221.004	1	2	2	2	0.138	2	1	2_2.gif
222.004	1	1	2	3	0.071	3	1	1_2.gif
223.004	1	3	2	2	0.115	2	1	3_2.gif
224.004	1	4	0	1	0.218	4	0	4_0.gif
225.004	1	3	0	3	0.682	3	1	3_0.gif
226.004	1	2	0	2	0.641	2	1	2_0.gif
227.004	1	4	0	4	0.726	4	1	4_0.gif
228.004	1	1	0	1	0.694	1	1	1_0.gif
229.004	1	3	0	3	0.83	3	1	3_0.gif
230.004	1	4	0	3	0.003	4	0	4_0.gif
231.004	1	3	0	4	0.004	3	0	3_0.gif
232.004	1	1	0	3	0.004	1	0	1_0.gif
233.004	1	3	0	1	0.004	3	0	3_0.gif
234.004	1	4	0	4	0.69	4	1	4_0.gif
235.004	1	3	0	3	0.6	3	1	3_0.gif
236.004	1	1	0	1	0.454	1	1	1_0.gif
237.004	1	4	0	4	0.555	4	1	4_0.gif
238.004	1	2	0	2	0.453	2	1	2_0.gif
239.004	1	4	0	4	0.498	4	1	4_0.gif
240.005	1	2	2	4	0.498	2	1	2_2.gif
241.005	1	1	2	4	0.498	4	1	1_2.gif
242.005	1	4	2	2	0.493	2	1	4_2.gif
243.005	1	1	2	1	0.559	1	1	1_2.gif
244.005	1	4	2	4	0.612	4	1	4_2.gif
245.005	1	3	2	1	0.552	1	1	3_2.gif
246.005	1	1	2	4	0.514	4	1	1_2.gif
247.005	1	2	2	3	0.462	3	1	2_2.gif
248.005	1	1	2	2	0.904	1	0	1_2.gif
249.005	1	2	2	2	0.003	2	1	2_2.gif
250.005	1	4	2	1	0.003	1	1	4_2.gif
251.005	1	1	2	2	0.027	2	1	1_2.gif
252.005	1	3	2	1	0.078	4	0	3_2.gif
253.005	1	1	2	4	0.185	1	0	1_2.gif
254.005	1	3	2	1	0.244	3	0	3_2.gif
255.005	1	1	2	3	0.163	1	0	1_2.gif
