onset	duration	nback_display	trial_type	response	response_time	correct_response	correct	stim_file
0	1	2	0	2	0.675	2	1	2_0.gif
1	1	1	0	2	0.005	1	0	1_0.gif
2	1	4	0	4	0.391	4	1	4_0.gif
3	1	2	0	2	0.777	2	1	2_0.gif
4	1	1	0	2	0.007	1	0	1_0.gif
5	1	2	0	2	0.398	2	1	2_0.gif
6	1	3	0	3	0.356	3	1	3_0.gif
7	1	1	0	1	0.36	1	1	1_0.gif
8	1	4	0	4	0.434	4	1	4_0.gif
9	1	3	0	3	0.445	3	1	3_0.gif
10	1	1	0	1	0.408	1	1	1_0.gif
11	1	3	0	3	0.45	3	1	3_0.gif
12	1	4	0	4	0.426	4	1	4_0.gif
13	1	1	0	1	0.382	1	1	1_0.gif
14	1	3	0	3	0.404	3	1	3_0.gif
15	1	1	0	1	0.35	1	1	1_0.gif
16	1	4	2	4	0.555	3	0	4_2.gif
17	1	3	2	6	0	1	n/a	3_2.gif
18	1	1	2	4	0.169	4	1	1_2.gif
19	1	4	2	3	0.097	3	1	4_2.gif
20	1	2	2	4	0.042	1	0	2_2.gif
21	1	4	2	1	0.007	4	0	4_2.gif
22	1	1	2	4	0.615	2	0	1_2.gif
23	1	3	2	6	0	4	n/a	3_2.gif
24	1	1	2	6	0	1	n/a	1_2.gif
25	1	4	2	3	0.086	3	1	4_2.gif
26	1	3	2	1	0.007	1	1	3_2.gif
27	1	4	2	4	0.007	4	1	4_2.gif
28	1	1	2	3	0.006	3	1	1_2.gif
29	1	4	2	3	0.473	4	0	4_2.gif
30	1	2	2	1	0.182	1	1	2_2.gif
31	1	4	2	4	0.049	4	1	4_2.gif
32	1	1	0	2	0.007	1	0	1_0.gif
33	1	3	0	3	0.406	3	1	3_0.gif
34	1	4	0	4	0.328	4	1	4_0.gif
35	1	3	0	3	0.423	3	1	3_0.gif
36	1	2	0	2	0.353	2	1	2_0.gif
37	1	3	0	3	0.294	3	1	3_0.gif
38	1	2	0	2	0.371	2	1	2_0.gif
39	1	1	0	1	0.385	1	1	1_0.gif
40	1	4	0	4	0.346	4	1	4_0.gif
41	1	1	0	1	0.398	1	1	1_0.gif
42	1	4	0	4	0.357	4	1	4_0.gif
43	1	2	0	2	0.53	2	1	2_0.gif
44	1	4	0	4	0.428	4	1	4_0.gif
45	1	2	0	2	0.366	2	1	2_0.gif
46	1	3	0	3	0.371	3	1	3_0.gif
47	1	1	0	1	0.348	1	1	1_0.gif
48	1	4	2	6	0	3	n/a	4_2.gif
49	1	3	2	6	0	1	n/a	3_2.gif
50	1	1	2	4	0.174	4	1	1_2.gif
51	1	2	2	3	0.007	3	1	2_2.gif
52	1	3	2	1	0.355	1	1	3_2.gif
53	1	1	2	2	0.189	2	1	1_2.gif
54	1	2	2	1	0.007	3	0	2_2.gif
55	1	3	2	2	0.006	1	0	3_2.gif
56	1	4	2	1	0.388	2	0	4_2.gif
57	1	1	2	2	0.172	3	0	1_2.gif
58	1	2	2	3	0.007	4	0	2_2.gif
59	1	1	2	1	0.346	1	1	1_2.gif
60	1	4	2	2	0.218	2	1	4_2.gif
61	1	2	2	1	0.007	1	1	2_2.gif
62	1	4	2	4	0.007	4	1	4_2.gif
63	1	1	2	2	0.006	2	1	1_2.gif
64	1	3	0	2	0.17	3	0	3_0.gif
65	1	1	0	1	0.369	1	1	1_0.gif
66	1	3	0	3	0.399	3	1	3_0.gif
67	1	1	0	1	0.393	1	1	1_0.gif
68	1	4	0	4	0.238	4	1	4_0.gif
69	1	1	0	1	0.246	1	1	1_0.gif
70	1	4	0	4	0.303	4	1	4_0.gif
71	1	1	0	1	0.343	1	1	1_0.gif
72	1	3	0	3	0.44	3	1	3_0.gif
73	1	4	0	4	0.419	4	1	4_0.gif
74	1	3	0	3	0.504	3	1	3_0.gif
75	1	4	0	4	0.494	4	1	4_0.gif
76	1	2	0	2	0.486	2	1	2_0.gif
77	1	1	0	1	0.468	1	1	1_0.gif
78	1	4	0	4	0.397	4	1	4_0.gif
79	1	2	0	2	0.454	2	1	2_0.gif
80.001	1	4	2	6	0	4	n/a	4_2.gif
81.001	1	2	2	6	0	2	n/a	2_2.gif
82.001	1	3	2	4	0.148	4	1	3_2.gif
83.001	1	4	2	2	0.006	2	1	4_2.gif
84.001	1	3	2	4	0.007	3	0	3_2.gif
85.001	1	4	2	3	0.586	4	0	4_2.gif
86.001	1	1	2	4	0.355	3	0	1_2.gif
87.001	1	2	2	3	0.102	4	0	2_2.gif
88.001	1	4	2	4	0.007	1	0	4_2.gif
89.001	1	2	2	2	0.349	2	1	2_2.gif
90.001	1	3	2	4	0.198	4	1	3_2.gif
91.001	1	4	2	2	0.133	2	1	4_2.gif
92.001	1	3	2	6	0	3	n/a	3_2.gif
93.001	1	1	2	3	0.075	4	0	1_2.gif
94.001	1	2	2	4	0.006	3	0	2_2.gif
95.001	1	1	2	1	0.463	1	1	1_2.gif
96.001	1	4	0	2	0.232	4	0	4_0.gif
97.001	1	3	0	4	0.007	3	0	3_0.gif
98.001	1	4	0	4	0.411	4	1	4_0.gif
99.001	1	3	0	3	0.429	3	1	3_0.gif
100.001	1	4	0	4	0.37	4	1	4_0.gif
101.001	1	3	0	3	0.323	3	1	3_0.gif
102.001	1	4	0	4	0.277	4	1	4_0.gif
103.001	1	2	0	3	0.171	2	0	2_0.gif
104.001	1	1	0	1	0.43	1	1	1_0.gif
105.001	1	4	0	4	0.224	4	1	4_0.gif
106.001	1	1	0	1	0.402	1	1	1_0.gif
107.001	1	3	0	3	0.446	3	1	3_0.gif
108.001	1	1	0	1	0.463	1	1	1_0.gif
109.001	1	3	0	3	0.556	3	1	3_0.gif
110.001	1	1	0	1	0.462	1	1	1_0.gif
111.001	1	3	0	3	0.444	3	1	3_0.gif
112.001	1	1	2	6	0	1	n/a	1_2.gif
113.001	1	3	2	6	0	3	n/a	3_2.gif
114.001	1	2	2	1	0.125	1	1	2_2.gif
115.001	1	4	2	3	0.007	3	1	4_2.gif
116.001	1	3	2	2	0.007	2	1	3_2.gif
117.001	1	1	2	4	0.006	4	1	1_2.gif
118.001	1	4	2	3	0.006	3	1	4_2.gif
119.001	1	1	2	4	0.007	1	0	1_2.gif
120.001	1	3	2	1	0.007	4	0	3_2.gif
121.001	1	4	2	4	0.01	1	0	4_2.gif
122.001	1	3	2	3	0.006	3	1	3_2.gif
123.001	1	1	2	4	0.007	4	1	1_2.gif
124.001	1	3	2	1	0.828	3	0	3_2.gif
125.001	1	2	2	1	0.006	1	1	2_2.gif
126.001	1	1	2	3	0.007	3	1	1_2.gif
127.001	1	4	2	3	0.303	2	0	4_2.gif
128.001	1	3	0	1	0.082	3	0	3_0.gif
129.001	1	2	0	2	0.461	2	1	2_0.gif
130.001	1	1	0	1	0.339	1	1	1_0.gif
131.001	1	4	0	4	0.267	4	1	4_0.gif
132.001	1	3	0	3	0.41	3	1	3_0.gif
133.001	1	4	0	4	0.39	4	1	4_0.gif
134.001	1	3	0	3	0.401	3	1	3_0.gif
135.001	1	4	0	4	0.448	4	1	4_0.gif
136.001	1	3	0	3	0.374	3	1	3_0.gif
137.001	1	1	0	1	0.462	1	1	1_0.gif
138.001	1	3	0	3	0.386	3	1	3_0.gif
139.001	1	4	0	4	0.272	4	1	4_0.gif
140.001	1	3	0	3	0.28	3	1	3_0.gif
141.001	1	2	0	2	0.483	2	1	2_0.gif
142.001	1	1	0	1	0.424	1	1	1_0.gif
143.001	1	4	0	4	0.332	4	1	4_0.gif
144.001	1	3	2	6	0	1	n/a	3_2.gif
145.001	1	1	2	6	0	4	n/a	1_2.gif
146.001	1	4	2	3	0.034	3	1	4_2.gif
147.001	1	3	2	1	0.007	1	1	3_2.gif
148.001	1	4	2	4	0.006	4	1	4_2.gif
149.001	1	1	2	3	0.006	3	1	1_2.gif
150.001	1	4	2	4	0.007	4	1	4_2.gif
151.001	1	3	2	1	0.006	1	1	3_2.gif
152.001	1	2	2	3	0.608	4	0	2_2.gif
153.001	1	1	2	6	0	3	n/a	1_2.gif
154.001	1	2	2	2	0.35	2	1	2_2.gif
155.001	1	1	2	1	0.227	1	1	1_2.gif
156.001	1	2	2	2	0.192	2	1	2_2.gif
157.001	1	4	2	1	0.18	1	1	4_2.gif
158.001	1	1	2	2	0.007	2	1	1_2.gif
159.001	1	4	2	4	0.007	4	1	4_2.gif
160.002	1	1	0	1	0.005	1	1	1_0.gif
161.002	1	2	0	1	0.005	2	0	2_0.gif
162.002	1	3	0	3	0.511	3	1	3_0.gif
163.002	1	2	0	2	0.382	2	1	2_0.gif
164.002	1	1	0	1	0.413	1	1	1_0.gif
165.002	1	4	0	4	0.366	4	1	4_0.gif
166.002	1	3	0	3	0.345	3	1	3_0.gif
167.002	1	2	0	2	0.413	2	1	2_0.gif
168.002	1	3	0	3	0.429	3	1	3_0.gif
169.002	1	4	0	4	0.452	4	1	4_0.gif
170.002	1	3	0	3	0.477	3	1	3_0.gif
171.002	1	1	0	1	0.452	1	1	1_0.gif
172.002	1	2	0	2	0.399	2	1	2_0.gif
173.002	1	1	0	1	0.38	1	1	1_0.gif
174.002	1	3	0	3	0.458	3	1	3_0.gif
175.002	1	4	0	4	0.289	4	1	4_0.gif
176.002	1	3	2	6	0	3	n/a	3_2.gif
177.002	1	1	2	6	0	4	n/a	1_2.gif
178.002	1	3	2	3	0.073	3	1	3_2.gif
179.002	1	1	2	1	0.006	1	1	1_2.gif
180.002	1	3	2	3	0.007	3	1	3_2.gif
181.002	1	4	2	3	0.694	1	0	4_2.gif
182.002	1	2	2	4	0.539	3	0	2_2.gif
183.002	1	4	2	2	0.582	4	0	4_2.gif
184.002	1	3	2	6	0	2	n/a	3_2.gif
185.002	1	4	2	4	0.012	4	1	4_2.gif
186.002	1	1	2	3	0.007	3	1	1_2.gif
187.002	1	2	2	4	0.006	4	1	2_2.gif
188.002	1	4	2	1	0.006	1	1	4_2.gif
189.002	1	3	2	4	0.917	2	0	3_2.gif
190.002	1	2	2	4	0.006	4	1	2_2.gif
191.002	1	1	2	3	0.375	3	1	1_2.gif
192.002	1	4	0	2	0.275	4	0	4_0.gif
193.002	1	2	0	4	0.006	2	0	2_0.gif
194.002	1	1	0	1	0.352	1	1	1_0.gif
195.002	1	2	0	2	0.383	2	1	2_0.gif
196.002	1	3	0	3	0.401	3	1	3_0.gif
197.002	1	1	0	1	0.364	1	1	1_0.gif
198.002	1	4	0	4	0.267	4	1	4_0.gif
199.002	1	3	0	3	0.361	3	1	3_0.gif
200.002	1	1	0	1	0.453	1	1	1_0.gif
201.002	1	3	0	3	0.434	3	1	3_0.gif
202.002	1	4	0	3	0.007	4	0	4_0.gif
203.002	1	1	0	1	0.415	1	1	1_0.gif
204.002	1	3	0	3	0.418	3	1	3_0.gif
205.002	1	1	0	1	0.393	1	1	1_0.gif
206.002	1	4	0	4	0.383	4	1	4_0.gif
207.002	1	3	0	3	0.409	3	1	3_0.gif
208.002	1	1	2	6	0	4	n/a	1_2.gif
209.002	1	4	2	6	0	3	n/a	4_2.gif
210.002	1	2	2	1	0.141	1	1	2_2.gif
211.002	1	4	2	4	0.025	4	1	4_2.gif
212.002	1	1	2	2	0.185	2	1	1_2.gif
213.002	1	3	2	4	0.083	4	1	3_2.gif
214.002	1	1	2	1	0.078	1	1	1_2.gif
215.002	1	4	2	3	0.059	3	1	4_2.gif
216.002	1	3	2	1	0.007	1	1	3_2.gif
217.002	1	4	2	4	0.059	4	1	4_2.gif
218.002	1	1	2	3	0.086	3	1	1_2.gif
219.002	1	4	2	4	0.007	4	1	4_2.gif
220.002	1	2	2	1	0.006	1	1	2_2.gif
221.002	1	4	2	4	0.006	4	1	4_2.gif
222.002	1	1	2	4	0.65	2	0	1_2.gif
223.002	1	3	2	1	0.503	4	0	3_2.gif
224.002	1	4	0	4	0.37	4	1	4_0.gif
225.002	1	3	0	3	0.395	3	1	3_0.gif
226.002	1	2	0	2	0.429	2	1	2_0.gif
227.002	1	3	0	3	0.343	3	1	3_0.gif
228.002	1	2	0	2	0.399	2	1	2_0.gif
229.002	1	1	0	1	0.426	1	1	1_0.gif
230.002	1	4	0	4	0.384	4	1	4_0.gif
231.002	1	1	0	1	0.443	1	1	1_0.gif
232.002	1	4	0	4	0.398	4	1	4_0.gif
233.002	1	2	0	2	0.409	2	1	2_0.gif
234.002	1	4	0	4	0.45	4	1	4_0.gif
235.002	1	2	0	2	0.398	2	1	2_0.gif
236.002	1	3	0	3	0.415	3	1	3_0.gif
237.002	1	1	0	1	0.395	1	1	1_0.gif
238.002	1	4	0	4	0.412	4	1	4_0.gif
239.002	1	3	0	3	0.479	3	1	3_0.gif
240.003	1	1	2	6	0	4	n/a	1_2.gif
241.003	1	2	2	6	0	3	n/a	2_2.gif
242.003	1	3	2	1	0.136	1	1	3_2.gif
243.003	1	1	2	2	0.006	2	1	1_2.gif
244.003	1	2	2	3	0.005	3	1	2_2.gif
245.003	1	3	2	1	0.391	1	1	3_2.gif
246.003	1	4	2	6	0	2	n/a	4_2.gif
247.003	1	1	2	6	0	3	n/a	1_2.gif
248.003	1	2	2	4	0.009	4	1	2_2.gif
249.003	1	1	2	1	0.005	1	1	1_2.gif
250.003	1	4	2	1	0.553	2	0	4_2.gif
251.003	1	2	2	4	0.374	1	0	2_2.gif
252.003	1	4	2	6	0	4	n/a	4_2.gif
253.003	1	1	2	2	0.153	2	1	1_2.gif
254.003	1	3	2	4	0.025	4	1	3_2.gif
255.003	1	1	2	1	0.071	1	1	1_2.gif
