onset	duration	nback_display	trial_type	response	response_time	correct_response	correct	stim_file
0	1	2	0	2	0.668	2	1	2_0.gif
1	1	1	0	1	0.646	1	1	1_0.gif
2	1	4	0	4	0.653	4	1	4_0.gif
3	1	2	0	4	0.003	2	0	2_0.gif
4	1	1	0	1	0.427	1	1	1_0.gif
5	1	4	0	4	0.452	4	1	4_0.gif
6	1	2	0	2	0.397	2	1	2_0.gif
7	1	4	0	4	0.592	4	1	4_0.gif
8	1	1	0	1	0.48	1	1	1_0.gif
9	1	4	0	4	0.479	4	1	4_0.gif
10	1	3	0	3	0.511	3	1	3_0.gif
11	1	1	0	1	0.469	1	1	1_0.gif
12	1	3	0	3	0.372	3	1	3_0.gif
13	1	4	0	4	0.481	4	1	4_0.gif
14	1	1	0	1	0.469	1	1	1_0.gif
15	1	3	0	3	0.42	3	1	3_0.gif
16	1	1	2	6	0	1	n/a	1_2.gif
17	1	4	2	6	0	3	n/a	4_2.gif
18	1	1	2	1	0.238	1	1	1_2.gif
19	1	3	2	4	0.219	4	1	3_2.gif
20	1	4	2	1	0.363	1	1	4_2.gif
21	1	2	2	3	0.332	3	1	2_2.gif
22	1	1	2	4	0.319	4	1	1_2.gif
23	1	3	2	2	0.388	2	1	3_2.gif
24	1	2	2	1	0.316	1	1	2_2.gif
25	1	1	2	3	0.317	3	1	1_2.gif
26	1	3	2	2	0.352	2	1	3_2.gif
27	1	1	2	1	0.361	1	1	1_2.gif
28	1	4	2	3	0.552	3	1	4_2.gif
29	1	2	2	1	0.421	1	1	2_2.gif
30	1	4	2	4	0.343	4	1	4_2.gif
31	1	1	2	2	0.359	2	1	1_2.gif
32	1	3	0	4	0.431	3	0	3_0.gif
33	1	4	0	3	0.003	4	0	4_0.gif
34	1	1	0	1	0.4	1	1	1_0.gif
35	1	2	0	2	0.32	2	1	2_0.gif
36	1	4	0	4	0.307	4	1	4_0.gif
37	1	2	0	2	0.362	2	1	2_0.gif
38	1	1	0	1	0.381	1	1	1_0.gif
39	1	4	0	4	0.522	4	1	4_0.gif
40	1	3	0	3	0.407	3	1	3_0.gif
41	1	2	0	2	0.31	2	1	2_0.gif
42	1	1	0	1	0.342	1	1	1_0.gif
43	1	2	0	2	0.691	2	1	2_0.gif
44	1	3	0	3	0.417	3	1	3_0.gif
45	1	1	0	1	0.37	1	1	1_0.gif
46	1	4	0	4	0.41	4	1	4_0.gif
47	1	3	0	3	0.476	3	1	3_0.gif
48.001	1	1	2	6	0	4	n/a	1_2.gif
49.001	1	2	2	6	0	3	n/a	2_2.gif
50.001	1	3	2	1	0.254	1	1	3_2.gif
51.001	1	1	2	2	0.272	2	1	1_2.gif
52.001	1	2	2	3	0.254	3	1	2_2.gif
53.001	1	3	2	1	0.229	1	1	3_2.gif
54.001	1	4	2	3	0.26	2	0	4_2.gif
55.001	1	1	2	2	0.347	3	0	1_2.gif
56.001	1	2	2	4	0.359	4	1	2_2.gif
57.001	1	1	2	1	0.392	1	1	1_2.gif
58.001	1	4	2	2	0.383	2	1	4_2.gif
59.001	1	2	2	1	0.355	1	1	2_2.gif
60.001	1	4	2	4	0.367	4	1	4_2.gif
61.001	1	2	2	2	0.9	2	1	2_2.gif
62.001	1	1	2	2	0.003	4	0	1_2.gif
63.001	1	2	2	4	0.003	2	0	2_2.gif
64.001	1	1	0	1	0.396	1	1	1_0.gif
65.001	1	2	0	2	0.461	2	1	2_0.gif
66.001	1	1	0	1	0.464	1	1	1_0.gif
67.001	1	2	0	2	0.422	2	1	2_0.gif
68.001	1	4	0	4	0.493	4	1	4_0.gif
69.001	1	3	0	3	0.48	3	1	3_0.gif
70.001	1	1	0	1	0.374	1	1	1_0.gif
71.001	1	2	0	2	0.378	2	1	2_0.gif
72.001	1	4	0	4	0.606	4	1	4_0.gif
73.008	1	2	0	2	0.546	2	1	2_0.gif
74.008	1	4	0	4	0.84	4	1	4_0.gif
75.008	1	1	0	4	0.003	1	0	1_0.gif
76.008	1	3	0	3	0.339	3	1	3_0.gif
77.008	1	4	0	4	0.436	4	1	4_0.gif
78.008	1	3	0	3	0.403	3	1	3_0.gif
79.008	1	4	0	4	0.458	4	1	4_0.gif
80.008	1	2	2	6	0	3	n/a	2_2.gif
81.008	1	1	2	6	0	4	n/a	1_2.gif
82.008	1	4	2	2	0.267	2	1	4_2.gif
83.008	1	3	2	1	0.322	1	1	3_2.gif
84.008	1	4	2	4	0.466	4	1	4_2.gif
85.008	1	1	2	3	0.405	3	1	1_2.gif
86.008	1	4	2	4	0.272	4	1	4_2.gif
87.008	1	3	2	1	0.362	1	1	3_2.gif
88.008	1	1	2	3	0.536	4	0	1_2.gif
89.008	1	3	2	6	0	3	n/a	3_2.gif
90.008	1	4	2	1	0.101	1	1	4_2.gif
91.008	1	1	2	3	0.405	3	1	1_2.gif
92.008	1	2	2	4	0.327	4	1	2_2.gif
93.008	1	3	2	1	0.361	1	1	3_2.gif
94.008	1	2	2	2	0.399	2	1	2_2.gif
95.008	1	4	2	3	0.462	3	1	4_2.gif
96.009	1	3	0	3	0.85	3	1	3_0.gif
97.009	1	4	0	3	0.003	4	0	4_0.gif
98.009	1	2	0	4	0.002	2	0	2_0.gif
99.009	1	1	0	1	0.39	1	1	1_0.gif
100.009	1	4	0	4	0.384	4	1	4_0.gif
101.009	1	3	0	3	0.392	3	1	3_0.gif
102.009	1	1	0	1	0.417	1	1	1_0.gif
103.009	1	3	0	3	0.373	3	1	3_0.gif
104.009	1	4	0	4	0.441	4	1	4_0.gif
105.009	1	3	0	3	0.466	3	1	3_0.gif
106.009	1	4	0	4	0.502	4	1	4_0.gif
107.009	1	1	0	1	0.418	1	1	1_0.gif
108.009	1	2	0	2	0.463	2	1	2_0.gif
109.009	1	4	0	4	0.468	4	1	4_0.gif
110.009	1	1	0	1	0.438	1	1	1_0.gif
111.009	1	3	0	3	0.51	3	1	3_0.gif
112.009	1	1	2	6	0	1	n/a	1_2.gif
113.009	1	3	2	6	0	3	n/a	3_2.gif
114.009	1	1	2	1	0.262	1	1	1_2.gif
115.009	1	3	2	3	0.333	3	1	3_2.gif
116.009	1	4	2	1	0.49	1	1	4_2.gif
117.009	1	3	2	3	0.441	3	1	3_2.gif
118.009	1	1	2	4	0.501	4	1	1_2.gif
119.009	1	3	2	1	0.653	3	0	3_2.gif
120.009	1	1	2	6	0	1	n/a	1_2.gif
121.009	1	4	2	6	0	3	n/a	4_2.gif
122.009	1	1	2	1	0.835	1	1	1_2.gif
123.009	1	2	2	1	0.003	4	0	2_2.gif
124.009	1	3	2	4	0.003	1	0	3_2.gif
125.009	1	4	2	1	0.003	2	0	4_2.gif
126.009	1	2	2	4	0.653	3	0	2_2.gif
127.009	1	3	2	6	0	4	n/a	3_2.gif
128.009	1	2	0	2	0.752	2	1	2_0.gif
129.009	1	4	0	4	0.563	4	1	4_0.gif
130.009	1	3	0	3	0.523	3	1	3_0.gif
131.009	1	1	0	1	0.5	1	1	1_0.gif
132.009	1	4	0	4	0.522	4	1	4_0.gif
133.009	1	3	0	3	0.683	3	1	3_0.gif
134.009	1	4	0	4	0.511	4	1	4_0.gif
135.009	1	3	0	3	0.443	3	1	3_0.gif
136.009	1	4	0	4	0.403	4	1	4_0.gif
137.009	1	3	0	3	0.365	3	1	3_0.gif
138.009	1	2	0	2	0.461	2	1	2_0.gif
139.009	1	1	0	1	0.371	1	1	1_0.gif
140.009	1	3	0	3	0.409	3	1	3_0.gif
141.009	1	4	0	4	0.497	4	1	4_0.gif
142.009	1	3	0	3	0.428	3	1	3_0.gif
143.009	1	4	0	4	0.459	4	1	4_0.gif
144.01	1	3	2	6	0	3	n/a	3_2.gif
145.01	1	1	2	6	0	4	n/a	1_2.gif
146.01	1	3	2	3	0.196	3	1	3_2.gif
147.01	1	2	2	1	0.188	1	1	2_2.gif
148.01	1	1	2	3	0.252	3	1	1_2.gif
149.01	1	4	2	2	0.262	2	1	4_2.gif
150.01	1	3	2	1	0.46	1	1	3_2.gif
151.01	1	1	2	4	0.451	4	1	1_2.gif
152.01	1	4	2	3	0.491	3	1	4_2.gif
153.01	1	3	2	1	0.607	1	1	3_2.gif
154.01	1	4	2	4	0.57	4	1	4_2.gif
155.01	1	1	2	3	0.588	3	1	1_2.gif
156.01	1	4	2	4	0.685	4	1	4_2.gif
157.01	1	1	2	1	0.781	1	1	1_2.gif
158.01	1	3	2	6	0	4	n/a	3_2.gif
159.01	1	1	2	3	0.158	1	0	1_2.gif
160.01	1	2	0	4	0.135	2	0	2_0.gif
161.01	1	1	0	2	0.003	1	0	1_0.gif
162.01	1	2	0	2	0.325	2	1	2_0.gif
163.01	1	4	0	4	0.46	4	1	4_0.gif
164.01	1	1	0	1	0.402	1	1	1_0.gif
165.01	1	4	0	4	0.466	4	1	4_0.gif
166.01	1	2	0	2	0.313	2	1	2_0.gif
167.01	1	1	0	1	0.249	1	1	1_0.gif
168.01	1	4	0	4	0.265	4	1	4_0.gif
169.01	1	2	0	2	0.298	2	1	2_0.gif
170.01	1	1	0	1	0.274	1	1	1_0.gif
171.01	1	2	0	2	0.376	2	1	2_0.gif
172.01	1	3	0	3	0.499	3	1	3_0.gif
173.01	1	4	0	4	0.377	4	1	4_0.gif
174.01	1	1	0	1	0.37	1	1	1_0.gif
175.01	1	3	0	3	0.408	3	1	3_0.gif
176.011	1	1	2	6	0	1	n/a	1_2.gif
177.011	1	4	2	6	0	3	n/a	4_2.gif
178.011	1	3	2	1	0.217	1	1	3_2.gif
179.011	1	4	2	4	0.265	4	1	4_2.gif
180.011	1	1	2	3	0.201	3	1	1_2.gif
181.011	1	3	2	1	0.301	4	0	3_2.gif
182.011	1	1	2	6	0	1	n/a	1_2.gif
183.011	1	4	2	6	0	3	n/a	4_2.gif
184.011	1	3	2	1	0.226	1	1	3_2.gif
185.011	1	4	2	4	0.246	4	1	4_2.gif
186.011	1	2	2	3	0.318	3	1	2_2.gif
187.011	1	4	2	4	0.201	4	1	4_2.gif
188.011	1	3	2	3	0.269	2	0	3_2.gif
189.011	1	4	2	2	0.177	4	0	4_2.gif
190.011	1	1	2	3	0.233	3	1	1_2.gif
191.011	1	2	2	4	0.278	4	1	2_2.gif
192.011	1	3	0	1	0.201	3	0	3_0.gif
193.011	1	4	0	3	0.003	4	0	4_0.gif
194.011	1	1	0	1	0.503	1	1	1_0.gif
195.011	1	4	0	4	0.463	4	1	4_0.gif
196.011	1	2	0	2	0.336	2	1	2_0.gif
197.011	1	1	0	1	0.314	1	1	1_0.gif
198.011	1	4	0	4	0.383	4	1	4_0.gif
199.011	1	2	0	2	0.451	2	1	2_0.gif
200.011	1	4	0	4	0.438	4	1	4_0.gif
201.011	1	1	0	1	0.385	1	1	1_0.gif
202.011	1	4	0	4	0.505	4	1	4_0.gif
203.011	1	3	0	3	0.381	3	1	3_0.gif
204.011	1	1	0	1	0.392	1	1	1_0.gif
205.011	1	3	0	3	0.408	3	1	3_0.gif
206.011	1	4	0	4	0.372	4	1	4_0.gif
207.011	1	1	0	1	0.401	1	1	1_0.gif
208.011	1	3	2	6	0	4	n/a	3_2.gif
209.011	1	1	2	6	0	1	n/a	1_2.gif
210.011	1	4	2	3	0.092	3	1	4_2.gif
211.011	1	1	2	1	0.184	1	1	1_2.gif
212.011	1	3	2	4	0.245	4	1	3_2.gif
213.011	1	4	2	1	0.226	1	1	4_2.gif
214.011	1	2	2	3	0.261	3	1	2_2.gif
215.011	1	1	2	4	0.187	4	1	1_2.gif
216.011	1	3	2	2	0.003	2	1	3_2.gif
217.011	1	2	2	6	0	1	n/a	2_2.gif
218.011	1	1	2	1	0.221	3	0	1_2.gif
219.011	1	3	2	3	0.215	2	0	3_2.gif
220.011	1	1	2	2	0.206	1	0	1_2.gif
221.011	1	4	2	1	0.191	3	0	4_2.gif
222.011	1	2	2	3	0.222	1	0	2_2.gif
223.012	1	4	2	4	0.232	4	1	4_2.gif
224.012	1	1	0	2	0.162	1	0	1_0.gif
225.012	1	3	0	3	0.441	3	1	3_0.gif
226.012	1	4	0	4	0.404	4	1	4_0.gif
227.012	1	1	0	1	0.4	1	1	1_0.gif
228.012	1	2	0	2	0.286	2	1	2_0.gif
229.012	1	4	0	4	0.514	4	1	4_0.gif
230.012	1	2	0	2	0.406	2	1	2_0.gif
231.012	1	1	0	1	0.349	1	1	1_0.gif
232.012	1	4	0	4	0.519	4	1	4_0.gif
233.012	1	3	0	3	0.411	3	1	3_0.gif
234.012	1	2	0	2	0.312	2	1	2_0.gif
235.012	1	1	0	1	0.32	1	1	1_0.gif
236.012	1	2	0	2	0.435	2	1	2_0.gif
237.012	1	3	0	3	0.302	3	1	3_0.gif
238.012	1	1	0	1	0.408	1	1	1_0.gif
239.012	1	4	0	4	0.335	4	1	4_0.gif
240.012	1	3	2	6	0	1	n/a	3_2.gif
241.013	1	1	2	6	0	4	n/a	1_2.gif
242.013	1	2	2	3	0.127	3	1	2_2.gif
243.013	1	3	2	1	0.193	1	1	3_2.gif
244.013	1	1	2	2	0.153	2	1	1_2.gif
245.013	1	2	2	3	0.388	3	1	2_2.gif
246.013	1	3	2	1	0.392	1	1	3_2.gif
247.013	1	4	2	2	0.296	2	1	4_2.gif
248.013	1	1	2	3	0.231	3	1	1_2.gif
249.013	1	2	2	4	0.18	4	1	2_2.gif
250.013	1	1	2	1	0.204	1	1	1_2.gif
251.013	1	4	2	2	0.121	2	1	4_2.gif
252.013	1	2	2	1	0.152	1	1	2_2.gif
253.013	1	4	2	6	0	4	n/a	4_2.gif
254.013	1	2	2	4	0.215	2	0	2_2.gif
255.013	1	1	2	2	0.213	4	0	1_2.gif
