onset	duration	nback_display	trial_type	response	response_time	correct_response	correct	stim_file
0	1	1	0	1	0.856	1	1	1_0.gif
1	1	2	0	1	0.005	2	0	2_0.gif
2	1	1	0	1	0.619	1	1	1_0.gif
3	1	2	0	2	0.492	2	1	2_0.gif
4	1	1	0	1	0.361	1	1	1_0.gif
5	1	2	0	2	0.386	2	1	2_0.gif
6	1	4	0	4	0.522	4	1	4_0.gif
7	1	1	0	1	0.659	1	1	1_0.gif
8	1	2	0	2	0.562	2	1	2_0.gif
9	1	4	0	4	0.905	4	1	4_0.gif
10	1	2	0	4	0.006	2	0	2_0.gif
11	1	3	0	3	0.711	3	1	3_0.gif
12	1	4	0	3	0.005	4	0	4_0.gif
13	1	3	0	3	0.435	3	1	3_0.gif
14	1	4	0	4	0.368	4	1	4_0.gif
15	1	3	0	3	0.311	3	1	3_0.gif
16	1	2	2	6	0	4	n/a	2_2.gif
17	1	4	2	6	0	3	n/a	4_2.gif
18	1	3	2	2	0.371	2	1	3_2.gif
19	1	1	2	4	0.479	4	1	1_2.gif
20	1	2	2	6	0	3	n/a	2_2.gif
21	1	4	2	1	0.075	1	1	4_2.gif
22	1	2	2	4	0.479	2	0	2_2.gif
23	1	3	2	2	0.478	4	0	3_2.gif
24	1	2	2	6	0	2	n/a	2_2.gif
25	1	3	2	6	0	3	n/a	3_2.gif
26	1	4	2	6	0	2	n/a	4_2.gif
27	1	1	2	6	0	3	n/a	1_2.gif
28	1	2	2	6	0	4	n/a	2_2.gif
29	1	3	2	1	0.184	1	1	3_2.gif
30	1	2	2	3	0.276	2	0	2_2.gif
31	1	4	2	6	0	3	n/a	4_2.gif
32	1	2	0	2	0.927	2	1	2_0.gif
33	1	3	0	2	0.007	3	0	3_0.gif
34	1	1	0	4	0.164	1	0	1_0.gif
35	1	2	0	1	0.03	2	0	2_0.gif
36	1	4	0	2	0.007	4	0	4_0.gif
37	1	3	0	4	0.006	3	0	3_0.gif
38	1	2	0	2	0.699	2	1	2_0.gif
39	1	1	0	1	0.593	1	1	1_0.gif
40	1	4	0	4	0.743	4	1	4_0.gif
41	1	2	0	4	0.007	2	0	2_0.gif
42	1	1	0	1	0.516	1	1	1_0.gif
43	1	4	0	4	0.636	4	1	4_0.gif
44	1	1	0	1	0.536	1	1	1_0.gif
45	1	3	0	3	0.638	3	1	3_0.gif
46	1	4	0	4	0.63	4	1	4_0.gif
47	1	2	0	2	0.472	2	1	2_0.gif
48	1	3	2	6	0	4	n/a	3_2.gif
49	1	2	2	6	0	2	n/a	2_2.gif
50	1	1	2	3	0.901	3	1	1_2.gif
51	1	2	2	3	0.007	2	0	2_2.gif
52	1	3	2	1	0.032	1	1	3_2.gif
53	1	1	2	6	0	2	n/a	1_2.gif
54	1	2	2	6	0	3	n/a	2_2.gif
55	1	1	2	1	0.644	1	1	1_2.gif
56	1	4	2	6	0	2	n/a	4_2.gif
57	1	2	2	2	0.007	1	0	2_2.gif
58	1	3	2	1	0.089	4	0	3_2.gif
59	1	2	2	6	0	2	n/a	2_2.gif
60	1	4	2	6	0	3	n/a	4_2.gif
61	1	1	2	6	0	2	n/a	1_2.gif
62	1	4	2	6	0	4	n/a	4_2.gif
63	1	1	2	1	0.056	1	1	1_2.gif
64.001	1	3	0	3	0.528	3	1	3_0.gif
65.001	1	1	0	1	0.426	1	1	1_0.gif
66.001	1	2	0	2	0.525	2	1	2_0.gif
67.001	1	1	0	1	0.572	1	1	1_0.gif
68.001	1	3	0	3	0.646	3	1	3_0.gif
69.001	1	2	0	2	0.567	2	1	2_0.gif
70.001	1	4	0	4	0.57	4	1	4_0.gif
71.001	1	2	0	2	0.523	2	1	2_0.gif
72.001	1	4	0	4	0.436	4	1	4_0.gif
73.001	1	3	0	3	0.484	3	1	3_0.gif
74.001	1	2	0	2	0.526	2	1	2_0.gif
75.001	1	1	0	1	0.41	1	1	1_0.gif
76.001	1	2	0	2	0.401	2	1	2_0.gif
77.001	1	4	0	4	0.423	4	1	4_0.gif
78.001	1	3	0	3	0.419	3	1	3_0.gif
79.001	1	1	0	1	0.438	1	1	1_0.gif
80.001	1	3	2	6	0	3	n/a	3_2.gif
81.001	1	2	2	6	0	1	n/a	2_2.gif
82.001	1	4	2	3	0.631	3	1	4_2.gif
83.001	1	2	2	2	0.719	2	1	2_2.gif
84.001	1	4	2	2	0.007	4	0	4_2.gif
85.001	1	3	2	6	0	2	n/a	3_2.gif
86.001	1	1	2	6	0	4	n/a	1_2.gif
87.001	1	2	2	3	0.376	3	1	2_2.gif
88.001	1	4	2	1	0.37	1	1	4_2.gif
89.001	1	1	2	2	0.406	2	1	1_2.gif
90.001	1	4	2	1	0.964	4	0	4_2.gif
91.001	1	3	2	1	0.007	1	1	3_2.gif
92.001	1	1	2	4	0.549	4	1	1_2.gif
93.001	1	4	2	6	0	3	n/a	4_2.gif
94.001	1	3	2	6	0	1	n/a	3_2.gif
95.001	1	2	2	6	0	4	n/a	2_2.gif
96.001	1	4	0	3	0.104	4	0	4_0.gif
97.001	1	3	0	4	0.039	3	0	3_0.gif
98.001	1	2	0	2	0.657	2	1	2_0.gif
99.001	1	3	0	3	0.57	3	1	3_0.gif
100.001	1	1	0	1	0.436	1	1	1_0.gif
101.001	1	3	0	3	0.481	3	1	3_0.gif
102.001	1	4	0	4	0.42	4	1	4_0.gif
103.001	1	1	0	1	0.57	1	1	1_0.gif
104.001	1	3	0	3	0.514	3	1	3_0.gif
105.001	1	4	0	4	0.562	4	1	4_0.gif
106.001	1	3	0	3	0.503	3	1	3_0.gif
107.001	1	1	0	1	0.436	1	1	1_0.gif
108.001	1	2	0	2	0.523	2	1	2_0.gif
109.001	1	4	0	4	0.547	4	1	4_0.gif
110.001	1	2	0	2	0.493	2	1	2_0.gif
111.001	1	3	0	3	0.514	3	1	3_0.gif
112.001	1	2	2	6	0	2	n/a	2_2.gif
113.001	1	4	2	6	0	3	n/a	4_2.gif
114.001	1	2	2	2	0.251	2	1	2_2.gif
115.001	1	4	2	2	0.849	4	0	4_2.gif
116.001	1	3	2	2	0.007	2	1	3_2.gif
117.001	1	4	2	6	0	4	n/a	4_2.gif
118.001	1	3	2	6	0	3	n/a	3_2.gif
119.001	1	1	2	6	0	4	n/a	1_2.gif
120.001	1	2	2	3	0.68	3	1	2_2.gif
121.001	1	3	2	3	0.007	1	0	3_2.gif
122.001	1	4	2	6	0	2	n/a	4_2.gif
123.001	1	2	2	6	0	3	n/a	2_2.gif
124.001	1	3	2	6	0	4	n/a	3_2.gif
125.001	1	2	2	6	0	2	n/a	2_2.gif
126.001	1	4	2	6	0	3	n/a	4_2.gif
127.001	1	1	2	2	0.139	2	1	1_2.gif
128.002	1	3	0	4	0.176	3	0	3_0.gif
129.002	1	4	0	3	0.006	4	0	4_0.gif
130.002	1	1	0	1	0.712	1	1	1_0.gif
131.002	1	2	0	1	0.005	2	0	2_0.gif
132.002	1	1	0	1	0.53	1	1	1_0.gif
133.002	1	3	0	3	0.533	3	1	3_0.gif
134.002	1	4	0	4	0.51	4	1	4_0.gif
135.002	1	3	0	3	0.625	3	1	3_0.gif
136.002	1	4	0	4	0.434	4	1	4_0.gif
137.002	1	3	0	3	0.37	3	1	3_0.gif
138.002	1	4	0	4	0.348	4	1	4_0.gif
139.002	1	2	0	2	0.633	2	1	2_0.gif
140.002	1	1	0	1	0.43	1	1	1_0.gif
141.002	1	3	0	3	0.63	3	1	3_0.gif
142.002	1	2	0	2	0.481	2	1	2_0.gif
143.002	1	4	0	4	0.42	4	1	4_0.gif
144.002	1	3	2	6	0	2	n/a	3_2.gif
145.002	1	1	2	6	0	4	n/a	1_2.gif
146.002	1	4	2	3	0.264	3	1	4_2.gif
147.002	1	3	2	1	0.107	1	1	3_2.gif
148.002	1	4	2	6	0	4	n/a	4_2.gif
149.002	1	3	2	3	0.578	3	1	3_2.gif
150.002	1	4	2	6	0	4	n/a	4_2.gif
151.002	1	3	2	3	0.518	3	1	3_2.gif
152.002	1	2	2	6	0	4	n/a	2_2.gif
153.002	1	3	2	6	0	3	n/a	3_2.gif
154.002	1	1	2	6	0	2	n/a	1_2.gif
155.002	1	2	2	6	0	3	n/a	2_2.gif
156.002	1	4	2	1	0.239	1	1	4_2.gif
157.002	1	2	2	2	0.484	2	1	2_2.gif
158.002	1	4	2	4	0.888	4	1	4_2.gif
159.002	1	2	2	4	0.007	2	0	2_2.gif
160.002	1	3	0	3	0.883	3	1	3_0.gif
161.002	1	4	0	3	0.006	4	0	4_0.gif
162.002	1	3	0	3	0.541	3	1	3_0.gif
163.002	1	2	0	2	0.461	2	1	2_0.gif
164.002	1	4	0	4	0.435	4	1	4_0.gif
165.002	1	1	0	1	0.477	1	1	1_0.gif
166.002	1	4	0	4	0.52	4	1	4_0.gif
167.002	1	1	0	1	0.509	1	1	1_0.gif
168.002	1	2	0	2	0.507	2	1	2_0.gif
169.002	1	1	0	1	0.53	1	1	1_0.gif
170.002	1	2	0	2	0.38	2	1	2_0.gif
171.002	1	3	0	3	0.528	3	1	3_0.gif
172.002	1	1	0	1	0.524	1	1	1_0.gif
173.002	1	3	0	3	0.494	3	1	3_0.gif
174.002	1	4	0	4	0.548	4	1	4_0.gif
175.002	1	2	0	2	0.546	2	1	2_0.gif
176.002	1	1	2	6	0	4	n/a	1_2.gif
177.002	1	2	2	6	0	2	n/a	2_2.gif
178.002	1	4	2	1	0.157	1	1	4_2.gif
179.002	1	1	2	2	0.301	2	1	1_2.gif
180.002	1	2	2	6	0	4	n/a	2_2.gif
181.002	1	3	2	6	0	1	n/a	3_2.gif
182.002	1	2	2	3	0.934	2	0	2_2.gif
183.002	1	1	2	3	0.007	3	1	1_2.gif
184.002	1	4	2	2	0.057	2	1	4_2.gif
185.002	1	1	2	1	0.357	1	1	1_2.gif
186.002	1	3	2	6	0	4	n/a	3_2.gif
187.002	1	1	2	6	0	1	n/a	1_2.gif
188.002	1	2	2	6	0	3	n/a	2_2.gif
189.002	1	4	2	1	0.233	1	1	4_2.gif
190.002	1	3	2	6	0	2	n/a	3_2.gif
191.002	1	4	2	6	0	4	n/a	4_2.gif
192.003	1	1	0	1	0.801	1	1	1_0.gif
193.003	1	4	0	1	0.006	4	0	4_0.gif
194.003	1	2	0	2	0.484	2	1	2_0.gif
195.003	1	4	0	4	0.51	4	1	4_0.gif
196.003	1	2	0	2	0.403	2	1	2_0.gif
197.003	1	1	0	1	0.451	1	1	1_0.gif
198.003	1	2	0	2	0.495	2	1	2_0.gif
199.003	1	1	0	1	0.479	1	1	1_0.gif
200.003	1	2	0	2	0.304	2	1	2_0.gif
201.003	1	1	0	1	0.39	1	1	1_0.gif
202.003	1	2	0	2	0.393	2	1	2_0.gif
203.003	1	4	0	4	0.451	4	1	4_0.gif
204.003	1	1	0	1	0.571	1	1	1_0.gif
205.003	1	2	0	2	0.49	2	1	2_0.gif
206.003	1	4	0	4	0.517	4	1	4_0.gif
207.003	1	2	0	2	0.46	2	1	2_0.gif
208.003	1	3	2	6	0	4	n/a	3_2.gif
209.003	1	4	2	6	0	2	n/a	4_2.gif
210.003	1	3	2	3	0.338	3	1	3_2.gif
211.003	1	4	2	4	0.78	4	1	4_2.gif
212.003	1	3	2	4	0.007	3	0	3_2.gif
213.003	1	2	2	6	0	4	n/a	2_2.gif
214.003	1	4	2	6	0	3	n/a	4_2.gif
215.003	1	3	2	6	0	2	n/a	3_2.gif
216.003	1	1	2	6	0	4	n/a	1_2.gif
217.003	1	2	2	6	0	3	n/a	2_2.gif
218.003	1	4	2	1	0.767	1	1	4_2.gif
219.003	1	2	2	6	0	2	n/a	2_2.gif
220.003	1	3	2	4	0.08	4	1	3_2.gif
221.003	1	2	2	2	0.241	2	1	2_2.gif
222.003	1	3	2	6	0	3	n/a	3_2.gif
223.003	1	4	2	6	0	2	n/a	4_2.gif
224.003	1	1	0	1	0.605	1	1	1_0.gif
225.003	1	2	0	2	0.503	2	1	2_0.gif
226.003	1	3	0	3	0.658	3	1	3_0.gif
227.003	1	2	0	2	0.55	2	1	2_0.gif
228.003	1	4	0	4	0.566	4	1	4_0.gif
229.003	1	2	0	2	0.509	2	1	2_0.gif
230.003	1	3	0	3	0.65	3	1	3_0.gif
231.003	1	1	0	3	0.007	1	0	1_0.gif
232.003	1	2	0	2	0.501	2	1	2_0.gif
233.003	1	4	0	4	0.484	4	1	4_0.gif
234.003	1	3	0	3	0.454	3	1	3_0.gif
235.003	1	2	0	2	0.499	2	1	2_0.gif
236.003	1	1	0	1	0.457	1	1	1_0.gif
237.003	1	4	0	4	0.487	4	1	4_0.gif
238.003	1	2	0	2	0.41	2	1	2_0.gif
239.003	1	1	0	1	0.464	1	1	1_0.gif
240.003	1	4	2	6	0	2	n/a	4_2.gif
241.003	1	1	2	6	0	1	n/a	1_2.gif
242.003	1	3	2	4	0.406	4	1	3_2.gif
243.003	1	4	2	1	0.377	1	1	4_2.gif
244.003	1	2	2	6	0	3	n/a	2_2.gif
245.003	1	3	2	6	0	4	n/a	3_2.gif
246.003	1	2	2	6	0	2	n/a	2_2.gif
247.003	1	1	2	3	0.431	3	1	1_2.gif
248.003	1	2	2	2	0.919	2	1	2_2.gif
249.003	1	3	2	2	0.007	1	0	3_2.gif
250.003	1	1	2	6	0	2	n/a	1_2.gif
251.003	1	2	2	6	0	3	n/a	2_2.gif
252.003	1	1	2	1	0.337	1	1	1_2.gif
253.003	1	4	2	2	0.53	2	1	4_2.gif
254.003	1	2	2	6	0	1	n/a	2_2.gif
255.003	1	3	2	4	0.623	4	1	3_2.gif
