onset	duration	nback_display	trial_type	response	response_time	correct_response	correct	stim_file
0	1	1	0	1	0.609	1	1	1_0.gif
1	1	2	0	2	0.503	2	1	2_0.gif
2.001	1	4	0	4	0.584	4	1	4_0.gif
3.001	1	1	0	1	0.866	1	1	1_0.gif
4.001	1	2	0	1	0.014	2	0	2_0.gif
5.001	1	1	0	1	0.563	1	1	1_0.gif
6.001	1	3	0	3	0.578	3	1	3_0.gif
7.001	1	4	0	4	0.753	4	1	4_0.gif
8.001	1	1	0	1	0.535	1	1	1_0.gif
9.001	1	3	0	3	0.721	3	1	3_0.gif
10.001	1	1	0	1	0.616	1	1	1_0.gif
11.001	1	3	0	3	0.556	3	1	3_0.gif
12.001	1	4	0	4	0.575	4	1	4_0.gif
13.001	1	2	0	2	0.477	2	1	2_0.gif
14.001	1	1	0	1	0.468	1	1	1_0.gif
15.001	1	3	0	3	0.444	3	1	3_0.gif
16.001	1	2	2	6	0	1	n/a	2_2.gif
17.001	1	1	2	6	0	3	n/a	1_2.gif
18.002	1	3	2	2	0.255	2	1	3_2.gif
19.002	1	1	2	1	0.154	1	1	1_2.gif
20.002	1	3	2	3	0.109	3	1	3_2.gif
21.002	1	4	2	1	0.174	1	1	4_2.gif
22.002	1	1	2	3	0.116	3	1	1_2.gif
23.002	1	2	2	4	0.082	4	1	2_2.gif
24.002	1	4	2	1	0.042	1	1	4_2.gif
25.002	1	3	2	2	0.013	2	1	3_2.gif
26.002	1	1	2	4	0.014	4	1	1_2.gif
27.002	1	2	2	3	0.151	3	1	2_2.gif
28.002	1	4	2	1	0.19	1	1	4_2.gif
29.002	1	3	2	2	0.227	2	1	3_2.gif
30.002	1	2	2	4	0.198	4	1	2_2.gif
31.002	1	4	2	3	0.075	3	1	4_2.gif
32.003	1	2	0	2	0.013	2	1	2_0.gif
33.003	1	3	0	2	0.029	3	0	3_0.gif
34.003	1	4	0	4	0.595	4	1	4_0.gif
35.003	1	1	0	1	0.363	1	1	1_0.gif
36.003	1	2	0	2	0.348	2	1	2_0.gif
37.003	1	1	0	1	0.52	1	1	1_0.gif
38.003	1	3	0	3	0.479	3	1	3_0.gif
39.003	1	4	0	4	0.5	4	1	4_0.gif
40.003	1	3	0	3	0.485	3	1	3_0.gif
41.003	1	1	0	1	0.547	1	1	1_0.gif
42.003	1	3	0	3	0.517	3	1	3_0.gif
43.003	1	1	0	1	0.561	1	1	1_0.gif
44.003	1	2	0	2	0.466	2	1	2_0.gif
45.003	1	3	0	3	0.539	3	1	3_0.gif
46.003	1	1	0	1	0.599	1	1	1_0.gif
47.003	1	2	0	2	0.489	2	1	2_0.gif
48.006	1	1	2	6	0	1	n/a	1_2.gif
49.006	1	4	2	6	0	2	n/a	4_2.gif
50.006	1	2	2	1	0.188	1	1	2_2.gif
51.006	1	4	2	4	0.216	4	1	4_2.gif
52.006	1	2	2	2	0.21	2	1	2_2.gif
53.006	1	4	2	4	0.195	4	1	4_2.gif
54.006	1	2	2	2	0.178	2	1	2_2.gif
55.006	1	1	2	4	0.201	4	1	1_2.gif
56.006	1	2	2	2	0.208	2	1	2_2.gif
57.006	1	1	2	1	0.105	1	1	1_2.gif
58.006	1	2	2	2	0.04	2	1	2_2.gif
59.006	1	1	2	1	0.067	1	1	1_2.gif
60.006	1	3	2	2	0.193	2	1	3_2.gif
61.006	1	2	2	1	0.381	1	1	2_2.gif
62.006	1	3	2	3	0.153	3	1	3_2.gif
63.006	1	2	2	2	0.014	2	1	2_2.gif
64.007	1	1	0	3	0.248	1	0	1_0.gif
65.007	1	2	0	1	0.087	2	0	2_0.gif
66.007	1	4	0	4	0.498	4	1	4_0.gif
67.007	1	3	0	3	0.396	3	1	3_0.gif
68.007	1	4	0	4	0.581	4	1	4_0.gif
69.007	1	2	0	2	0.504	2	1	2_0.gif
70.007	1	1	0	1	0.365	1	1	1_0.gif
71.007	1	4	0	4	0.574	4	1	4_0.gif
72.007	1	3	0	3	0.419	3	1	3_0.gif
73.007	1	4	0	4	0.582	4	1	4_0.gif
74.007	1	2	0	2	0.579	2	1	2_0.gif
75.007	1	4	0	4	0.59	4	1	4_0.gif
76.007	1	2	0	2	0.511	2	1	2_0.gif
77.007	1	3	0	3	0.467	3	1	3_0.gif
78.007	1	1	0	1	0.479	1	1	1_0.gif
79.007	1	3	0	3	0.73	3	1	3_0.gif
80.007	1	1	2	6	0	1	n/a	1_2.gif
81.007	1	2	2	6	0	3	n/a	2_2.gif
82.007	1	4	2	1	0.178	1	1	4_2.gif
83.007	1	2	2	2	0.11	2	1	2_2.gif
84.007	1	4	2	4	0.065	4	1	4_2.gif
85.01	1	3	2	2	0.064	2	1	3_2.gif
86.01	1	2	2	4	0.109	4	1	2_2.gif
87.01	1	1	2	3	0.096	3	1	1_2.gif
88.01	1	4	2	2	0.089	2	1	4_2.gif
89.01	1	3	2	1	0.16	1	1	3_2.gif
90.01	1	2	2	4	0.06	4	1	2_2.gif
91.01	1	1	2	3	0.06	3	1	1_2.gif
92.01	1	2	2	2	0.136	2	1	2_2.gif
93.01	1	3	2	1	0.077	1	1	3_2.gif
94.01	1	1	2	2	0.096	2	1	1_2.gif
95.01	1	3	2	3	0.084	3	1	3_2.gif
96.011	1	4	0	1	0.093	4	0	4_0.gif
97.011	1	1	0	4	0.014	1	0	1_0.gif
98.011	1	3	0	3	0.562	3	1	3_0.gif
99.011	1	1	0	1	0.566	1	1	1_0.gif
100.011	1	3	0	3	0.552	3	1	3_0.gif
101.011	1	1	0	1	0.532	1	1	1_0.gif
102.011	1	2	0	2	0.512	2	1	2_0.gif
103.011	1	4	0	4	0.504	4	1	4_0.gif
104.011	1	2	0	2	0.434	2	1	2_0.gif
105.011	1	3	0	3	0.425	3	1	3_0.gif
106.011	1	1	0	1	0.353	1	1	1_0.gif
107.011	1	3	0	3	0.511	3	1	3_0.gif
108.011	1	1	0	1	0.533	1	1	1_0.gif
109.011	1	3	0	3	0.447	3	1	3_0.gif
110.011	1	4	0	4	0.52	4	1	4_0.gif
111.011	1	1	0	1	0.562	1	1	1_0.gif
112.012	1	4	2	6	0	4	n/a	4_2.gif
113.012	1	1	2	6	0	1	n/a	1_2.gif
114.012	1	3	2	4	0.161	4	1	3_2.gif
115.012	1	4	2	1	0.155	1	1	4_2.gif
116.012	1	1	2	3	0.162	3	1	1_2.gif
117.012	1	3	2	4	0.071	4	1	3_2.gif
118.012	1	4	2	1	0.127	1	1	4_2.gif
119.012	1	1	2	3	0.172	3	1	1_2.gif
120.012	1	3	2	4	0.19	4	1	3_2.gif
121.012	1	4	2	1	0.115	1	1	4_2.gif
122.012	1	1	2	3	0.12	3	1	1_2.gif
123.012	1	2	2	4	0.18	4	1	2_2.gif
124.012	1	1	2	1	0.149	1	1	1_2.gif
125.012	1	4	2	2	0.047	2	1	4_2.gif
126.012	1	3	2	1	0.015	1	1	3_2.gif
127.012	1	2	2	4	0.043	4	1	2_2.gif
128.013	1	3	0	3	0.014	3	1	3_0.gif
129.013	1	1	0	3	0.014	1	0	1_0.gif
130.013	1	3	0	3	0.458	3	1	3_0.gif
131.013	1	1	0	1	0.473	1	1	1_0.gif
132.013	1	3	0	3	0.491	3	1	3_0.gif
133.013	1	2	0	2	0.475	2	1	2_0.gif
134.013	1	1	0	1	0.47	1	1	1_0.gif
135.013	1	3	0	3	0.471	3	1	3_0.gif
136.013	1	1	0	1	0.499	1	1	1_0.gif
137.013	1	4	0	4	0.535	4	1	4_0.gif
138.013	1	3	0	3	0.476	3	1	3_0.gif
139.013	1	4	0	4	0.609	4	1	4_0.gif
140.013	1	2	0	2	0.48	2	1	2_0.gif
141.013	1	4	0	4	0.563	4	1	4_0.gif
142.013	1	1	0	1	0.467	1	1	1_0.gif
143.013	1	4	0	4	0.717	4	1	4_0.gif
144.014	1	1	2	6	0	1	n/a	1_2.gif
145.014	1	3	2	6	0	4	n/a	3_2.gif
146.014	1	1	2	1	0.137	1	1	1_2.gif
147.014	1	3	2	3	0.097	3	1	3_2.gif
148.014	1	4	2	1	0.201	1	1	4_2.gif
149.014	1	2	2	3	0.151	3	1	2_2.gif
150.014	1	4	2	4	0.108	4	1	4_2.gif
151.014	1	2	2	2	0.077	2	1	2_2.gif
152.014	1	4	2	4	0.112	4	1	4_2.gif
153.014	1	1	2	2	0.091	2	1	1_2.gif
154.014	1	4	2	4	0.124	4	1	4_2.gif
155.014	1	3	2	1	0.122	1	1	3_2.gif
156.014	1	4	2	4	0.167	4	1	4_2.gif
157.014	1	1	2	3	0.074	3	1	1_2.gif
158.014	1	3	2	4	0.016	4	1	3_2.gif
159.014	1	2	2	1	0.103	1	1	2_2.gif
160.015	1	3	0	3	0.199	3	1	3_0.gif
161.015	1	4	0	3	0.014	4	0	4_0.gif
162.015	1	1	0	4	0.073	1	0	1_0.gif
163.015	1	2	0	2	0.431	2	1	2_0.gif
164.015	1	3	0	3	0.562	3	1	3_0.gif
165.015	1	1	0	1	0.632	1	1	1_0.gif
166.015	1	2	0	2	0.591	2	1	2_0.gif
167.015	1	1	0	1	0.487	1	1	1_0.gif
168.015	1	4	0	4	0.427	4	1	4_0.gif
169.015	1	2	0	2	0.438	2	1	2_0.gif
170.015	1	1	0	1	0.42	1	1	1_0.gif
171.015	1	4	0	4	0.459	4	1	4_0.gif
172.015	1	1	0	1	0.595	1	1	1_0.gif
173.015	1	4	0	4	0.639	4	1	4_0.gif
174.015	1	3	0	3	0.436	3	1	3_0.gif
175.015	1	4	0	4	0.483	4	1	4_0.gif
176.016	1	2	2	6	0	3	n/a	2_2.gif
177.016	1	4	2	6	0	4	n/a	4_2.gif
178.016	1	3	2	2	0.129	2	1	3_2.gif
179.016	1	4	2	4	0.031	4	1	4_2.gif
180.016	1	1	2	3	0.027	3	1	1_2.gif
181.016	1	2	2	4	0.014	4	1	2_2.gif
182.016	1	3	2	1	0.015	1	1	3_2.gif
183.016	1	4	2	2	0.049	2	1	4_2.gif
184.016	1	1	2	3	0.055	3	1	1_2.gif
185.016	1	4	2	4	0.032	4	1	4_2.gif
186.016	1	2	2	1	0.014	1	1	2_2.gif
187.016	1	1	2	4	0.014	4	1	1_2.gif
188.016	1	4	2	2	0.014	2	1	4_2.gif
189.016	1	1	2	1	0.014	1	1	1_2.gif
190.016	1	2	2	4	0.014	4	1	2_2.gif
191.016	1	1	2	1	0.019	1	1	1_2.gif
192.017	1	3	0	2	0.024	3	0	3_0.gif
193.017	1	4	0	4	0.567	4	1	4_0.gif
194.017	1	1	0	1	0.4	1	1	1_0.gif
195.017	1	3	0	3	0.444	3	1	3_0.gif
196.017	1	1	0	1	0.45	1	1	1_0.gif
197.017	1	3	0	3	0.417	3	1	3_0.gif
198.017	1	4	0	4	0.356	4	1	4_0.gif
199.017	1	2	0	2	0.408	2	1	2_0.gif
200.017	1	1	0	1	0.479	1	1	1_0.gif
201.017	1	3	0	3	0.439	3	1	3_0.gif
202.017	1	2	0	2	0.532	2	1	2_0.gif
203.017	1	1	0	1	0.625	1	1	1_0.gif
204.017	1	3	0	3	0.55	3	1	3_0.gif
205.017	1	1	0	1	0.609	1	1	1_0.gif
206.017	1	3	0	3	0.669	3	1	3_0.gif
207.017	1	4	0	4	0.61	4	1	4_0.gif
208.018	1	1	2	6	0	3	n/a	1_2.gif
209.018	1	2	2	6	0	4	n/a	2_2.gif
210.018	1	4	2	1	0.114	1	1	4_2.gif
211.018	1	3	2	2	0.033	2	1	3_2.gif
212.018	1	1	2	4	0.051	4	1	1_2.gif
213.018	1	2	2	3	0.037	3	1	2_2.gif
214.018	1	4	2	1	0.153	1	1	4_2.gif
215.018	1	3	2	2	0.101	2	1	3_2.gif
216.018	1	2	2	4	0.2	4	1	2_2.gif
217.018	1	4	2	3	0.106	3	1	4_2.gif
218.019	1	2	2	2	0.116	2	1	2_2.gif
219.019	1	3	2	4	0.113	4	1	3_2.gif
220.019	1	4	2	2	0.178	2	1	4_2.gif
221.019	1	1	2	3	0.248	3	1	1_2.gif
222.019	1	2	2	4	0.242	4	1	2_2.gif
223.019	1	1	2	1	0.262	1	1	1_2.gif
224.019	1	3	0	3	0.656	3	1	3_0.gif
225.019	1	4	0	4	0.593	4	1	4_0.gif
226.019	1	3	0	3	0.511	3	1	3_0.gif
227.019	1	1	0	1	0.431	1	1	1_0.gif
228.019	1	3	0	3	0.496	3	1	3_0.gif
229.019	1	1	0	1	0.484	1	1	1_0.gif
230.019	1	2	0	2	0.373	2	1	2_0.gif
231.019	1	3	0	3	0.417	3	1	3_0.gif
232.019	1	1	0	1	0.423	1	1	1_0.gif
233.019	1	2	0	2	0.436	2	1	2_0.gif
234.019	1	1	0	1	0.408	1	1	1_0.gif
235.019	1	4	0	4	0.575	4	1	4_0.gif
236.019	1	2	0	2	0.62	2	1	2_0.gif
237.019	1	4	0	4	0.523	4	1	4_0.gif
238.019	1	2	0	2	0.429	2	1	2_0.gif
239.019	1	4	0	4	0.464	4	1	4_0.gif
240.02	1	2	2	6	0	2	n/a	2_2.gif
241.02	1	1	2	6	0	4	n/a	1_2.gif
242.02	1	2	2	2	0.161	2	1	2_2.gif
243.02	1	1	2	1	0.113	1	1	1_2.gif
244.02	1	2	2	2	0.1	2	1	2_2.gif
245.02	1	1	2	1	0.05	1	1	1_2.gif
246.02	1	3	2	2	0.063	2	1	3_2.gif
247.02	1	2	2	1	0.016	1	1	2_2.gif
248.02	1	3	2	3	0.014	3	1	3_2.gif
249.02	1	2	2	2	0.014	2	1	2_2.gif
250.02	1	1	2	3	0.014	3	1	1_2.gif
251.02	1	2	2	2	0.014	2	1	2_2.gif
252.02	1	4	2	1	0.015	1	1	4_2.gif
253.02	1	3	2	2	0.015	2	1	3_2.gif
254.02	1	4	2	4	0.014	4	1	4_2.gif
255.02	1	2	2	3	0.043	3	1	2_2.gif
