onset	duration	nback_display	trial_type	response	response_time	correct_response	correct	stim_file
0	1	3	0	3	0.761	3	1	3_0.gif
1	1	2	0	3	0.005	2	0	2_0.gif
2	1	4	0	4	0.535	4	1	4_0.gif
3	1	1	0	1	0.383	1	1	1_0.gif
4	1	2	0	2	0.513	2	1	2_0.gif
5	1	1	0	1	0.465	1	1	1_0.gif
6	1	4	0	4	0.48	4	1	4_0.gif
7	1	2	0	2	0.527	2	1	2_0.gif
8	1	4	0	4	0.518	4	1	4_0.gif
9	1	1	0	1	0.483	1	1	1_0.gif
10	1	2	0	2	0.371	2	1	2_0.gif
11	1	1	0	1	0.436	1	1	1_0.gif
12	1	2	0	2	0.33	2	1	2_0.gif
13	1	1	0	1	0.401	1	1	1_0.gif
14	1	3	0	3	0.468	3	1	3_0.gif
15	1	2	0	2	0.635	2	1	2_0.gif
16	1	4	2	6	0	3	n/a	4_2.gif
17	1	3	2	6	0	2	n/a	3_2.gif
18	1	2	2	4	0.197	4	1	2_2.gif
19	1	4	2	3	0.144	3	1	4_2.gif
20	1	1	2	2	0.138	2	1	1_2.gif
21	1	4	2	6	0	4	n/a	4_2.gif
22	1	1	2	4	0.204	1	0	1_2.gif
23	1	2	2	4	0.19	4	1	2_2.gif
24	1	3	2	1	0.184	1	1	3_2.gif
25	1	4	2	3	0.729	2	0	4_2.gif
26	1	1	2	3	0.007	3	1	1_2.gif
27	1	2	2	3	0.424	4	0	2_2.gif
28	1	4	2	6	0	1	n/a	4_2.gif
29	1	1	2	2	0.577	2	1	1_2.gif
30	1	2	2	4	0.223	4	1	2_2.gif
31	1	4	2	1	0.325	1	1	4_2.gif
32	1	1	0	2	0.13	1	0	1_0.gif
33	1	2	0	2	0.528	2	1	2_0.gif
34	1	3	0	3	0.377	3	1	3_0.gif
35	1	1	0	1	0.519	1	1	1_0.gif
36	1	3	0	3	0.41	3	1	3_0.gif
37	1	4	0	4	0.613	4	1	4_0.gif
38	1	3	0	3	0.449	3	1	3_0.gif
39	1	2	0	2	0.513	2	1	2_0.gif
40	1	3	0	3	0.49	3	1	3_0.gif
41	1	1	0	1	0.44	1	1	1_0.gif
42	1	2	0	2	0.412	2	1	2_0.gif
43	1	1	0	1	0.462	1	1	1_0.gif
44	1	3	0	3	0.444	3	1	3_0.gif
45	1	4	0	4	0.513	4	1	4_0.gif
46	1	3	0	3	0.462	3	1	3_0.gif
47	1	1	0	1	0.465	1	1	1_0.gif
48	1	2	2	2	0.36	3	0	2_2.gif
49	1	1	2	6	0	1	n/a	1_2.gif
50	1	4	2	2	0.12	2	1	4_2.gif
51	1	3	2	1	0.078	1	1	3_2.gif
52	1	2	2	4	0.288	4	1	2_2.gif
53	1	3	2	3	0.321	3	1	3_2.gif
54	1	1	2	2	0.424	2	1	1_2.gif
55	1	2	2	3	0.187	3	1	2_2.gif
56	1	4	2	1	0.196	1	1	4_2.gif
57	1	3	2	3	0.461	2	0	3_2.gif
58	1	2	2	4	0.448	4	1	2_2.gif
59	1	4	2	6	0	3	n/a	4_2.gif
60	1	1	2	3	0.176	2	0	1_2.gif
61	1	3	2	4	0.069	4	1	3_2.gif
62	1	2	2	1	0.197	1	1	2_2.gif
63	1	3	2	3	0.184	3	1	3_2.gif
64	1	2	0	2	0.178	2	1	2_0.gif
65	1	3	0	3	0.345	3	1	3_0.gif
66	1	1	0	1	0.417	1	1	1_0.gif
67	1	3	0	4	0.362	3	0	3_0.gif
68	1	4	0	4	0.458	4	1	4_0.gif
69	1	3	0	3	0.457	3	1	3_0.gif
70	1	4	0	4	0.489	4	1	4_0.gif
71	1	3	0	3	0.266	3	1	3_0.gif
72	1	4	0	4	0.414	4	1	4_0.gif
73	1	2	0	2	0.598	2	1	2_0.gif
74	1	1	0	3	0.375	1	0	1_0.gif
75	1	3	0	3	0.545	3	1	3_0.gif
76	1	4	0	4	0.357	4	1	4_0.gif
77	1	2	0	2	0.604	2	1	2_0.gif
78	1	1	0	1	0.401	1	1	1_0.gif
79	1	2	0	2	0.489	2	1	2_0.gif
80.001	1	3	2	6	0	1	n/a	3_2.gif
81.001	1	1	2	6	0	2	n/a	1_2.gif
82.001	1	4	2	3	0.177	3	1	4_2.gif
83.001	1	1	2	1	0.107	1	1	1_2.gif
84.001	1	2	2	4	0.2	4	1	2_2.gif
85.001	1	3	2	1	0.122	1	1	3_2.gif
86.001	1	4	2	3	0.238	2	0	4_2.gif
87.001	1	1	2	2	0.124	3	0	1_2.gif
88.001	1	2	2	4	0.148	4	1	2_2.gif
89.001	1	3	2	1	0.184	1	1	3_2.gif
90.001	1	2	2	3	0.208	2	0	2_2.gif
91.001	1	3	2	3	0.194	3	1	3_2.gif
92.001	1	1	2	2	0.242	2	1	1_2.gif
93.001	1	2	2	3	0.178	3	1	2_2.gif
94.001	1	4	2	1	0.184	1	1	4_2.gif
95.001	1	2	2	2	0.145	2	1	2_2.gif
96.001	1	3	0	4	0.163	3	0	3_0.gif
97.001	1	2	0	6	0	2	n/a	2_0.gif
98.001	1	4	0	2	0.437	4	0	4_0.gif
99.001	1	2	0	4	0.007	2	0	2_0.gif
100.001	1	4	0	4	0.499	4	1	4_0.gif
101.001	1	1	0	1	0.46	1	1	1_0.gif
102.001	1	3	0	3	0.321	3	1	3_0.gif
103.001	1	1	0	1	0.391	1	1	1_0.gif
104.001	1	3	0	3	0.412	3	1	3_0.gif
105.001	1	4	0	4	0.458	4	1	4_0.gif
106.001	1	2	0	2	0.671	2	1	2_0.gif
107.001	1	1	0	1	0.56	1	1	1_0.gif
108.001	1	3	0	3	0.646	3	1	3_0.gif
109.001	1	4	0	4	0.566	4	1	4_0.gif
110.001	1	2	0	2	0.83	2	1	2_0.gif
111.001	1	4	0	2	0.006	4	0	4_0.gif
112.001	1	1	2	6	0	2	n/a	1_2.gif
113.001	1	4	2	6	0	4	n/a	4_2.gif
114.001	1	2	2	1	0.121	1	1	2_2.gif
115.001	1	4	2	4	0.157	4	1	4_2.gif
116.001	1	2	2	1	0.117	2	0	2_2.gif
117.001	1	1	2	4	0.091	4	1	1_2.gif
118.001	1	2	2	2	0.321	2	1	2_2.gif
119.001	1	4	2	1	0.365	1	1	4_2.gif
120.001	1	3	2	4	0.141	2	0	3_2.gif
121.001	1	4	2	3	0.151	4	0	4_2.gif
122.001	1	1	2	3	0.467	3	1	1_2.gif
123.001	1	2	2	4	0.007	4	1	2_2.gif
124.001	1	3	2	1	0.216	1	1	3_2.gif
125.001	1	4	2	4	0.278	2	0	4_2.gif
126.001	1	2	2	2	0.621	3	0	2_2.gif
127.001	1	1	2	4	0.307	4	1	1_2.gif
128.001	1	3	0	3	0.758	3	1	3_0.gif
129.001	1	1	0	1	0.477	1	1	1_0.gif
130.001	1	4	0	4	0.518	4	1	4_0.gif
131.001	1	1	0	1	0.449	1	1	1_0.gif
132.001	1	4	0	4	0.532	4	1	4_0.gif
133.001	1	1	0	1	0.344	1	1	1_0.gif
134.001	1	2	0	3	0.663	2	0	2_0.gif
135.001	1	3	0	3	0.455	3	1	3_0.gif
136.001	1	1	0	1	0.564	1	1	1_0.gif
137.001	1	4	0	4	0.598	4	1	4_0.gif
138.001	1	2	0	2	0.738	2	1	2_0.gif
139.001	1	1	0	1	0.537	1	1	1_0.gif
140.001	1	3	0	3	0.556	3	1	3_0.gif
141.001	1	1	0	1	0.503	1	1	1_0.gif
142.001	1	4	0	4	0.449	4	1	4_0.gif
143.001	1	2	0	2	0.734	2	1	2_0.gif
144.001	1	1	2	6	0	4	n/a	1_2.gif
145.001	1	4	2	6	0	2	n/a	4_2.gif
146.001	1	2	2	1	0.09	1	1	2_2.gif
147.001	1	1	2	4	0.044	4	1	1_2.gif
148.001	1	2	2	2	0.072	2	1	2_2.gif
149.001	1	4	2	4	0.495	1	0	4_2.gif
150.001	1	2	2	1	0.217	2	0	2_2.gif
151.001	1	3	2	2	0.085	4	0	3_2.gif
152.001	1	4	2	6	0	2	n/a	4_2.gif
153.002	1	2	2	3	0.144	3	1	2_2.gif
154.002	1	4	2	2	0.201	4	0	4_2.gif
155.002	1	2	2	4	0.38	2	0	2_2.gif
156.002	1	4	2	6	0	4	n/a	4_2.gif
157.002	1	1	2	1	0.275	2	0	1_2.gif
158.002	1	2	2	4	0.143	4	1	2_2.gif
159.002	1	1	2	1	0.387	1	1	1_2.gif
160.002	1	3	0	2	0.343	3	0	3_0.gif
161.002	1	2	0	2	0.741	2	1	2_0.gif
162.002	1	4	0	4	0.707	4	1	4_0.gif
163.002	1	3	0	3	0.579	3	1	3_0.gif
164.002	1	4	0	4	0.657	4	1	4_0.gif
165.002	1	1	0	1	0.804	1	1	1_0.gif
166.002	1	2	0	1	0.007	2	0	2_0.gif
167.002	1	3	0	3	0.704	3	1	3_0.gif
168.002	1	4	0	4	0.57	4	1	4_0.gif
169.002	1	2	0	2	0.827	2	1	2_0.gif
170.002	1	4	0	2	0.007	4	0	4_0.gif
171.002	1	3	0	4	0.005	3	0	3_0.gif
172.002	1	4	0	3	0.005	4	0	4_0.gif
173.002	1	2	0	4	0.007	2	0	2_0.gif
174.002	1	3	0	3	0.547	3	1	3_0.gif
175.002	1	4	0	4	0.425	4	1	4_0.gif
176.002	1	1	2	6	0	3	n/a	1_2.gif
177.002	1	4	2	6	0	4	n/a	4_2.gif
178.002	1	2	2	1	0.207	1	1	2_2.gif
179.002	1	1	2	4	0.121	4	1	1_2.gif
180.002	1	2	2	2	0.098	2	1	2_2.gif
181.002	1	4	2	1	0.155	1	1	4_2.gif
182.002	1	1	2	2	0.192	2	1	1_2.gif
183.002	1	2	2	4	0.211	4	1	2_2.gif
184.002	1	3	2	1	0.117	1	1	3_2.gif
185.002	1	4	2	2	0.287	2	1	4_2.gif
186.002	1	2	2	3	0.23	3	1	2_2.gif
187.002	1	4	2	4	0.209	4	1	4_2.gif
188.002	1	3	2	2	0.235	2	1	3_2.gif
189.002	1	2	2	4	0.218	4	1	2_2.gif
190.002	1	4	2	3	0.207	3	1	4_2.gif
191.002	1	1	2	2	0.158	2	1	1_2.gif
192.002	1	2	0	4	0.156	2	0	2_0.gif
193.002	1	1	0	1	0.676	1	1	1_0.gif
194.002	1	4	0	4	0.506	4	1	4_0.gif
195.002	1	2	0	2	0.552	2	1	2_0.gif
196.002	1	4	0	4	0.561	4	1	4_0.gif
197.002	1	1	0	1	0.589	1	1	1_0.gif
198.002	1	2	0	2	0.532	2	1	2_0.gif
199.002	1	1	0	1	0.494	1	1	1_0.gif
200.002	1	2	0	2	0.326	2	1	2_0.gif
201.002	1	1	0	1	0.46	1	1	1_0.gif
202.002	1	3	0	3	0.468	3	1	3_0.gif
203.002	1	2	0	2	0.548	2	1	2_0.gif
204.002	1	4	0	4	0.472	4	1	4_0.gif
205.002	1	3	0	3	0.546	3	1	3_0.gif
206.002	1	2	0	2	0.677	2	1	2_0.gif
207.002	1	4	0	4	0.644	4	1	4_0.gif
208.002	1	1	2	1	0.548	2	0	1_2.gif
209.002	1	4	2	6	0	4	n/a	4_2.gif
210.002	1	1	2	1	0.2	1	1	1_2.gif
211.002	1	2	2	4	0.111	4	1	2_2.gif
212.002	1	3	2	1	0.007	1	1	3_2.gif
213.002	1	4	2	4	0.006	2	0	4_2.gif
214.002	1	1	2	2	0.006	3	0	1_2.gif
215.002	1	2	2	3	0.007	4	0	2_2.gif
216.002	1	4	2	4	0.043	1	0	4_2.gif
217.002	1	1	2	2	0.095	2	1	1_2.gif
218.002	1	2	2	1	0.194	4	0	2_2.gif
219.002	1	4	2	4	0.185	1	0	4_2.gif
220.002	1	1	2	2	0.305	2	1	1_2.gif
221.002	1	2	2	4	0.226	4	1	2_2.gif
222.002	1	3	2	1	0.28	1	1	3_2.gif
223.002	1	1	2	4	0.247	2	0	1_2.gif
224.002	1	3	0	3	0.723	3	1	3_0.gif
225.002	1	4	0	4	0.536	4	1	4_0.gif
226.002	1	3	0	3	0.563	3	1	3_0.gif
227.002	1	2	0	2	0.647	2	1	2_0.gif
228.002	1	3	0	3	0.632	3	1	3_0.gif
229.002	1	1	0	1	0.54	1	1	1_0.gif
230.002	1	2	0	2	0.494	2	1	2_0.gif
231.002	1	1	0	1	0.503	1	1	1_0.gif
232.002	1	3	0	3	0.468	3	1	3_0.gif
233.002	1	4	0	4	0.541	4	1	4_0.gif
234.002	1	3	0	3	0.43	3	1	3_0.gif
235.002	1	1	0	1	0.489	1	1	1_0.gif
236.002	1	2	0	2	0.481	2	1	2_0.gif
237.002	1	1	0	1	0.428	1	1	1_0.gif
238.002	1	4	0	4	0.498	4	1	4_0.gif
239.002	1	3	0	3	0.404	3	1	3_0.gif
240.003	1	2	2	6	0	4	n/a	2_2.gif
241.003	1	3	2	6	0	3	n/a	3_2.gif
242.003	1	1	2	2	0.109	2	1	1_2.gif
243.003	1	2	2	3	0.056	3	1	2_2.gif
244.003	1	4	2	1	0.205	1	1	4_2.gif
245.003	1	3	2	2	0.169	2	1	3_2.gif
246.003	1	2	2	4	0.157	4	1	2_2.gif
247.003	1	4	2	3	0.196	3	1	4_2.gif
248.003	1	1	2	2	0.161	2	1	1_2.gif
249.003	1	3	2	4	0.196	4	1	3_2.gif
250.003	1	2	2	1	0.222	1	1	2_2.gif
251.003	1	3	2	3	0.236	3	1	3_2.gif
252.003	1	2	2	2	0.186	2	1	2_2.gif
253.003	1	3	2	3	0.272	3	1	3_2.gif
254.003	1	1	2	2	0.116	2	1	1_2.gif
255.003	1	3	2	1	0.259	3	0	3_2.gif
