onset	duration	nback_display	trial_type	response	response_time	correct_response	correct	stim_file
0	1	2	0	2	0.698	2	1	2_0.gif
1	1	4	0	4	0.567	4	1	4_0.gif
2	1	2	0	2	0.471	2	1	2_0.gif
3	1	1	0	1	0.258	1	1	1_0.gif
4	1	2	0	2	0.437	2	1	2_0.gif
5	1	3	0	3	0.413	3	1	3_0.gif
6	1	2	0	2	0.386	2	1	2_0.gif
7	1	4	0	4	0.364	4	1	4_0.gif
8	1	2	0	2	0.409	2	1	2_0.gif
9	1	3	0	3	0.443	3	1	3_0.gif
10	1	4	0	6	0	4	n/a	4_0.gif
11	1	1	0	1	0.426	1	1	1_0.gif
12	1	4	0	4	0.42	4	1	4_0.gif
13	1	1	0	1	0.436	1	1	1_0.gif
14	1	4	0	4	0.472	4	1	4_0.gif
15	1	1	0	1	0.393	1	1	1_0.gif
16.001	1	3	2	3	0.452	4	0	3_2.gif
17.001	1	2	2	6	0	1	n/a	2_2.gif
18.001	1	1	2	3	0.202	3	1	1_2.gif
19.001	1	4	2	2	0.088	2	1	4_2.gif
20.001	1	1	2	1	0.014	1	1	1_2.gif
21.001	1	4	2	4	0.014	4	1	4_2.gif
22.021	1	3	2	1	0.014	1	1	3_2.gif
23.021	1	1	2	4	0.014	4	1	1_2.gif
24.021	1	2	2	1	0.647	3	0	2_2.gif
25.021	1	4	2	2	0.585	1	0	4_2.gif
26.021	1	2	2	6	0	2	n/a	2_2.gif
27.021	1	1	2	2	0.923	4	0	1_2.gif
28.021	1	3	2	2	0.014	2	1	3_2.gif
29.021	1	4	2	1	0.014	1	1	4_2.gif
30.021	1	2	2	3	0.024	3	1	2_2.gif
31.021	1	3	2	4	0.014	4	1	3_2.gif
32.022	1	1	0	2	0.013	1	0	1_0.gif
33.022	1	4	0	1	0.013	4	0	4_0.gif
34.022	1	3	0	3	0.577	3	1	3_0.gif
35.022	1	2	0	2	0.456	2	1	2_0.gif
36.022	1	3	0	3	0.473	3	1	3_0.gif
37.022	1	1	0	1	0.424	1	1	1_0.gif
38.022	1	3	0	6	0	3	n/a	3_0.gif
39.022	1	2	0	2	0.415	2	1	2_0.gif
40.022	1	1	0	1	0.343	1	1	1_0.gif
41.022	1	2	0	2	0.411	2	1	2_0.gif
42.022	1	4	0	4	0.492	4	1	4_0.gif
43.022	1	1	0	1	0.395	1	1	1_0.gif
44.022	1	4	0	4	0.346	4	1	4_0.gif
45.022	1	3	0	3	0.734	3	1	3_0.gif
46.022	1	4	0	6	0	4	n/a	4_0.gif
47.022	1	1	0	1	0.644	1	1	1_0.gif
48.023	1	3	2	6	0	4	n/a	3_2.gif
49.023	1	2	2	6	0	1	n/a	2_2.gif
50.023	1	3	2	3	0.074	3	1	3_2.gif
51.023	1	2	2	2	0.04	2	1	2_2.gif
52.023	1	3	2	3	0.042	3	1	3_2.gif
53.023	1	4	2	2	0.016	2	1	4_2.gif
54.023	1	2	2	3	0.013	3	1	2_2.gif
55.023	1	3	2	4	0.014	4	1	3_2.gif
56.023	1	2	2	2	0.014	2	1	2_2.gif
57.023	1	1	2	3	0.014	3	1	1_2.gif
58.023	1	3	2	2	0.014	2	1	3_2.gif
59.023	1	1	2	3	0.68	1	0	1_2.gif
60.023	1	3	2	1	0.56	3	0	3_2.gif
61.023	1	1	2	6	0	1	n/a	1_2.gif
62.024	1	3	2	1	0.425	3	0	3_2.gif
63.024	1	2	2	3	0.411	1	0	2_2.gif
64.024	1	3	0	2	0.218	3	0	3_0.gif
65.024	1	2	0	3	0.037	2	0	2_0.gif
66.024	1	3	0	6	0	3	n/a	3_0.gif
67.025	1	2	0	2	0.472	2	1	2_0.gif
68.025	1	4	0	4	0.531	4	1	4_0.gif
69.025	1	3	0	6	0	3	n/a	3_0.gif
70.025	1	1	0	1	0.565	1	1	1_0.gif
71.025	1	3	0	3	0.494	3	1	3_0.gif
72.025	1	1	0	1	0.434	1	1	1_0.gif
73.025	1	4	0	4	0.381	4	1	4_0.gif
74.025	1	3	0	6	0	3	n/a	3_0.gif
75.025	1	2	0	2	0.664	2	1	2_0.gif
76.025	1	3	0	3	0.533	3	1	3_0.gif
77.025	1	1	0	1	0.566	1	1	1_0.gif
78.025	1	4	0	4	0.537	4	1	4_0.gif
79.025	1	1	0	1	0.431	1	1	1_0.gif
80.026	1	2	2	2	0.515	4	0	2_2.gif
81.026	1	4	2	6	0	1	n/a	4_2.gif
82.026	1	2	2	2	0.013	2	1	2_2.gif
83.026	1	1	2	4	0.014	4	1	1_2.gif
84.026	1	4	2	2	0.014	2	1	4_2.gif
85.026	1	1	2	4	0.617	1	0	1_2.gif
86.026	1	4	2	1	0.547	4	0	4_2.gif
87.026	1	2	2	4	0.211	1	0	2_2.gif
88.026	1	3	2	2	0.212	4	0	3_2.gif
89.026	1	1	2	3	0.219	2	0	1_2.gif
90.026	1	2	2	1	0.07	3	0	2_2.gif
91.026	1	1	2	2	0.208	1	0	1_2.gif
92.026	1	4	2	1	0.179	2	0	4_2.gif
93.026	1	3	2	4	0.068	1	0	3_2.gif
94.026	1	1	2	3	0.081	4	0	1_2.gif
95.026	1	2	2	1	0.208	3	0	2_2.gif
96.027	1	1	0	2	0.19	1	0	1_0.gif
97.027	1	3	0	6	0	3	n/a	3_0.gif
98.027	1	2	0	2	0.428	2	1	2_0.gif
99.027	1	3	0	3	0.36	3	1	3_0.gif
100.027	1	4	0	6	0	4	n/a	4_0.gif
101.027	1	1	0	4	0.165	1	0	1_0.gif
102.027	1	4	0	4	0.468	4	1	4_0.gif
103.027	1	3	0	3	0.398	3	1	3_0.gif
104.027	1	4	0	4	0.6	4	1	4_0.gif
105.027	1	2	0	2	0.42	2	1	2_0.gif
106.027	1	3	0	3	0.301	3	1	3_0.gif
107.027	1	1	0	1	0.374	1	1	1_0.gif
108.027	1	2	0	2	0.517	2	1	2_0.gif
109.027	1	4	0	4	0.429	4	1	4_0.gif
110.027	1	1	0	1	0.285	1	1	1_0.gif
111.027	1	4	0	4	0.305	4	1	4_0.gif
112.028	1	2	2	2	0.483	1	0	2_2.gif
113.028	1	3	2	6	0	4	n/a	3_2.gif
114.028	1	1	2	2	0.238	2	1	1_2.gif
115.028	1	3	2	3	0.171	3	1	3_2.gif
116.028	1	4	2	1	0.078	1	1	4_2.gif
117.028	1	2	2	3	0.032	3	1	2_2.gif
118.028	1	4	2	4	0.013	4	1	4_2.gif
119.028	1	1	2	2	0.014	2	1	1_2.gif
120.028	1	4	2	4	0.014	4	1	4_2.gif
121.028	1	1	2	4	0.621	1	0	1_2.gif
122.028	1	4	2	1	0.631	4	0	4_2.gif
123.028	1	2	2	2	0.587	1	0	2_2.gif
124.028	1	3	2	6	0	4	n/a	3_2.gif
125.028	1	4	2	6	0	2	n/a	4_2.gif
126.028	1	1	2	6	0	3	n/a	1_2.gif
127.028	1	3	2	1	0.935	4	0	3_2.gif
128.029	1	4	0	1	0.014	4	0	4_0.gif
129.029	1	3	0	3	0.349	3	1	3_0.gif
130.029	1	2	0	2	0.318	2	1	2_0.gif
131.029	1	4	0	4	0.479	4	1	4_0.gif
132.029	1	1	0	1	0.515	1	1	1_0.gif
133.029	1	2	0	2	0.447	2	1	2_0.gif
134.029	1	3	0	3	0.324	3	1	3_0.gif
135.029	1	2	0	2	0.388	2	1	2_0.gif
136.029	1	4	0	4	0.414	4	1	4_0.gif
137.029	1	1	0	1	0.356	1	1	1_0.gif
138.029	1	4	0	4	0.482	4	1	4_0.gif
139.029	1	3	0	3	0.407	3	1	3_0.gif
140.029	1	4	0	4	0.527	4	1	4_0.gif
141.029	1	2	0	2	0.372	2	1	2_0.gif
142.029	1	4	0	4	0.396	4	1	4_0.gif
143.029	1	1	0	1	0.387	1	1	1_0.gif
144.029	1	4	2	6	0	4	n/a	4_2.gif
145.03	1	2	2	6	0	1	n/a	2_2.gif
146.03	1	3	2	4	0.168	4	1	3_2.gif
147.03	1	2	2	2	0.106	2	1	2_2.gif
148.03	1	1	2	3	0.08	3	1	1_2.gif
149.03	1	4	2	2	0.014	2	1	4_2.gif
150.03	1	1	2	1	0.014	1	1	1_2.gif
151.03	1	2	2	4	0.013	4	1	2_2.gif
152.03	1	1	2	1	0.013	1	1	1_2.gif
153.03	1	2	2	2	0.014	2	1	2_2.gif
154.03	1	4	2	1	0.013	1	1	4_2.gif
155.03	1	1	2	2	0.014	2	1	1_2.gif
156.03	1	3	2	4	0.014	4	1	3_2.gif
157.03	1	1	2	1	0.013	1	1	1_2.gif
158.03	1	2	2	3	0.016	3	1	2_2.gif
159.03	1	3	2	1	0.013	1	1	3_2.gif
160.03	1	1	0	6	0	1	n/a	1_0.gif
161.031	1	3	0	3	0.69	3	1	3_0.gif
162.031	1	1	0	1	0.532	1	1	1_0.gif
163.031	1	3	0	3	0.374	3	1	3_0.gif
164.031	1	4	0	4	0.394	4	1	4_0.gif
165.031	1	1	0	1	0.315	1	1	1_0.gif
166.031	1	4	0	4	0.27	4	1	4_0.gif
167.031	1	3	0	3	0.415	3	1	3_0.gif
168.031	1	1	0	1	0.312	1	1	1_0.gif
169.031	1	2	0	2	0.331	2	1	2_0.gif
170.031	1	1	0	1	0.424	1	1	1_0.gif
171.031	1	2	0	2	0.315	2	1	2_0.gif
172.031	1	3	0	3	0.372	3	1	3_0.gif
173.031	1	2	0	2	0.406	2	1	2_0.gif
174.031	1	3	0	3	0.331	3	1	3_0.gif
175.031	1	1	0	1	0.385	1	1	1_0.gif
176.031	1	4	2	6	0	3	n/a	4_2.gif
177.032	1	1	2	4	0.933	1	0	1_2.gif
178.032	1	4	2	4	0.013	4	1	4_2.gif
179.032	1	2	2	1	0.013	1	1	2_2.gif
180.032	1	3	2	4	0.013	4	1	3_2.gif
181.032	1	1	2	2	0.014	2	1	1_2.gif
182.032	1	2	2	3	0.016	3	1	2_2.gif
183.032	1	3	2	1	0.014	1	1	3_2.gif
184.032	1	4	2	2	0.014	2	1	4_2.gif
185.032	1	3	2	4	0.589	3	0	3_2.gif
186.032	1	2	2	3	0.439	4	0	2_2.gif
187.032	1	1	2	2	0.358	3	0	1_2.gif
188.032	1	4	2	1	0.252	2	0	4_2.gif
189.032	1	2	2	4	0.109	1	0	2_2.gif
190.032	1	4	2	2	0.029	4	0	4_2.gif
191.032	1	2	2	4	0.014	2	0	2_2.gif
192.032	1	3	0	2	0.014	3	0	3_0.gif
193.032	1	1	0	3	0.019	1	0	1_0.gif
194.032	1	4	0	4	0.366	4	1	4_0.gif
195.032	1	1	0	1	0.347	1	1	1_0.gif
196.032	1	4	0	6	0	4	n/a	4_0.gif
197.032	1	3	0	3	0.668	3	1	3_0.gif
198.032	1	1	0	1	0.431	1	1	1_0.gif
199.032	1	3	0	3	0.536	3	1	3_0.gif
200.032	1	2	0	2	0.409	2	1	2_0.gif
201.032	1	4	0	4	0.366	4	1	4_0.gif
202.033	1	2	0	2	0.411	2	1	2_0.gif
203.033	1	1	0	1	0.347	1	1	1_0.gif
204.033	1	2	0	4	0.315	2	0	2_0.gif
205.033	1	3	0	3	0.547	3	1	3_0.gif
206.033	1	2	0	2	0.472	2	1	2_0.gif
207.033	1	4	0	6	0	4	n/a	4_0.gif
208.034	1	2	2	2	0.821	2	1	2_2.gif
209.034	1	3	2	2	0.017	4	0	3_2.gif
210.034	1	4	2	2	0.095	2	1	4_2.gif
211.034	1	1	2	3	0.03	3	1	1_2.gif
212.034	1	4	2	4	0.014	4	1	4_2.gif
213.034	1	1	2	1	0.015	1	1	1_2.gif
214.034	1	4	2	4	0.015	4	1	4_2.gif
215.034	1	1	2	1	0.015	1	1	1_2.gif
216.034	1	3	2	4	0.015	4	1	3_2.gif
217.034	1	2	2	1	0.094	1	1	2_2.gif
218.034	1	1	2	2	0.546	3	0	1_2.gif
219.034	1	4	2	1	0.372	2	0	4_2.gif
220.034	1	1	2	4	0.372	1	0	1_2.gif
221.034	1	4	2	1	0.575	4	0	4_2.gif
222.034	1	3	2	4	0.431	1	0	3_2.gif
223.034	1	1	2	6	0	4	n/a	1_2.gif
224.035	1	2	0	1	0.206	2	0	2_0.gif
225.035	1	4	0	4	0.525	4	1	4_0.gif
226.035	1	2	0	2	0.421	2	1	2_0.gif
227.035	1	1	0	1	0.337	1	1	1_0.gif
228.035	1	3	0	3	0.382	3	1	3_0.gif
229.035	1	4	0	4	0.477	4	1	4_0.gif
230.035	1	2	0	2	0.387	2	1	2_0.gif
231.035	1	3	0	3	0.335	3	1	3_0.gif
232.035	1	1	0	1	0.425	1	1	1_0.gif
233.035	1	4	0	4	0.31	4	1	4_0.gif
234.035	1	3	0	3	0.369	3	1	3_0.gif
235.035	1	2	0	2	0.366	2	1	2_0.gif
236.035	1	3	0	3	0.328	3	1	3_0.gif
237.035	1	1	0	1	0.368	1	1	1_0.gif
238.035	1	3	0	3	0.39	3	1	3_0.gif
239.035	1	2	0	2	0.379	2	1	2_0.gif
240.036	1	1	2	1	0.409	3	0	1_2.gif
241.036	1	2	2	6	0	2	n/a	2_2.gif
242.036	1	4	2	1	0.049	1	1	4_2.gif
243.036	1	1	2	2	0.014	2	1	1_2.gif
244.036	1	4	2	4	0.015	4	1	4_2.gif
245.036	1	3	2	1	0.014	1	1	3_2.gif
246.036	1	4	2	6	0	4	n/a	4_2.gif
247.036	1	1	2	3	0.014	3	1	1_2.gif
248.036	1	3	2	4	0.014	4	1	3_2.gif
249.036	1	2	2	1	0.014	1	1	2_2.gif
250.036	1	3	2	3	0.014	3	1	3_2.gif
251.036	1	2	2	2	0.014	2	1	2_2.gif
252.036	1	3	2	3	0.014	3	1	3_2.gif
253.036	1	4	2	2	0.017	2	1	4_2.gif
254.036	1	2	2	3	0.015	3	1	2_2.gif
255.036	1	3	2	4	0.014	4	1	3_2.gif
