onset	duration	nback_display	trial_type	response	response_time	correct_response	correct	stim_file
0	1	2	0	2	0.876	2	1	2_0.gif
1	1	1	0	2	0.005	1	0	1_0.gif
2	1	4	0	4	0.53	4	1	4_0.gif
3	1	2	0	2	0.483	2	1	2_0.gif
4	1	1	0	1	0.325	1	1	1_0.gif
5	1	4	0	4	0.432	4	1	4_0.gif
6	1	2	0	2	0.375	2	1	2_0.gif
7	1	1	0	1	0.267	1	1	1_0.gif
8	1	3	0	3	0.339	3	1	3_0.gif
9	1	4	0	4	0.305	4	1	4_0.gif
10	1	1	0	1	0.47	1	1	1_0.gif
11	1	4	0	4	0.53	4	1	4_0.gif
12	1	1	0	1	0.491	1	1	1_0.gif
13	1	4	0	4	0.493	4	1	4_0.gif
14	1	2	0	2	0.395	2	1	2_0.gif
15	1	1	0	1	0.372	1	1	1_0.gif
16	1	3	2	6	0	2	n/a	3_2.gif
17	1	2	2	6	0	1	n/a	2_2.gif
18	1	1	2	3	0.474	3	1	1_2.gif
19	1	3	2	2	0.271	2	1	3_2.gif
20	1	4	2	1	0.06	1	1	4_2.gif
21	1	1	2	3	0.082	3	1	1_2.gif
22	1	4	2	4	0.07	4	1	4_2.gif
23	1	3	2	1	0.077	1	1	3_2.gif
24	1	4	2	4	0.007	4	1	4_2.gif
25	1	3	2	3	0.006	3	1	3_2.gif
26	1	4	2	4	0.231	4	1	4_2.gif
27	1	1	2	3	0.552	3	1	1_2.gif
28	1	3	2	4	0.362	4	1	3_2.gif
29	1	4	2	1	0.413	1	1	4_2.gif
30	1	2	2	3	0.304	3	1	2_2.gif
31	1	1	2	4	0.376	4	1	1_2.gif
32	1	2	0	2	0.425	2	1	2_0.gif
33	1	4	0	2	0.784	4	0	4_0.gif
34	1	2	0	2	0.007	2	1	2_0.gif
35	1	1	0	1	0.486	1	1	1_0.gif
36	1	2	0	2	0.478	2	1	2_0.gif
37	1	4	0	4	0.312	4	1	4_0.gif
38	1	1	0	1	0.39	1	1	1_0.gif
39	1	4	0	4	0.406	4	1	4_0.gif
40	1	2	0	2	0.496	2	1	2_0.gif
41	1	3	0	3	0.458	3	1	3_0.gif
42	1	4	0	4	0.451	4	1	4_0.gif
43	1	1	0	1	0.404	1	1	1_0.gif
44	1	4	0	4	0.42	4	1	4_0.gif
45	1	3	0	3	0.416	3	1	3_0.gif
46	1	2	0	2	0.401	2	1	2_0.gif
47	1	1	0	1	0.45	1	1	1_0.gif
48.001	1	2	2	6	0	2	n/a	2_2.gif
49.002	1	4	2	6	0	1	n/a	4_2.gif
50.002	1	1	2	2	0.325	2	1	1_2.gif
51.002	1	2	2	4	0.226	4	1	2_2.gif
52.002	1	1	2	1	0.288	1	1	1_2.gif
53.002	1	4	2	2	0.399	2	1	4_2.gif
54.002	1	2	2	1	0.36	1	1	2_2.gif
55.002	1	4	2	4	0.463	4	1	4_2.gif
56.002	1	3	2	2	0.505	2	1	3_2.gif
57.002	1	1	2	4	0.491	4	1	1_2.gif
58.002	1	2	2	3	0.416	3	1	2_2.gif
59.002	1	1	2	1	0.29	1	1	1_2.gif
60.002	1	2	2	2	0.297	2	1	2_2.gif
61.002	1	1	2	1	0.591	1	1	1_2.gif
62.002	1	2	2	2	0.652	2	1	2_2.gif
63.002	1	1	2	1	0.728	1	1	1_2.gif
64.002	1	3	0	1	0.007	3	0	3_0.gif
65.002	1	1	0	3	0.129	1	0	1_0.gif
66.002	1	2	0	1	0.006	2	0	2_0.gif
67.002	1	4	0	2	0.25	4	0	4_0.gif
68.002	1	3	0	4	0.007	3	0	3_0.gif
69.002	1	4	0	4	0.427	4	1	4_0.gif
70.002	1	2	0	2	0.332	2	1	2_0.gif
71.002	1	3	0	3	0.406	3	1	3_0.gif
72.002	1	4	0	4	0.341	4	1	4_0.gif
73.002	1	3	0	3	0.534	3	1	3_0.gif
74.002	1	4	0	4	0.424	4	1	4_0.gif
75.002	1	2	0	2	0.437	2	1	2_0.gif
76.002	1	4	0	4	0.5	4	1	4_0.gif
77.002	1	1	0	1	0.452	1	1	1_0.gif
78.002	1	4	0	4	0.559	4	1	4_0.gif
79.002	1	1	0	1	0.518	1	1	1_0.gif
80.002	1	4	2	6	0	4	n/a	4_2.gif
81.002	1	3	2	6	0	1	n/a	3_2.gif
82.002	1	1	2	4	0.176	4	1	1_2.gif
83.002	1	3	2	3	0.006	3	1	3_2.gif
84.002	1	4	2	1	0.006	1	1	4_2.gif
85.002	1	1	2	3	0.007	3	1	1_2.gif
86.002	1	2	2	4	0.019	4	1	2_2.gif
87.002	1	3	2	1	0.17	1	1	3_2.gif
88.002	1	1	2	2	0.174	2	1	1_2.gif
89.002	1	2	2	3	0.307	3	1	2_2.gif
90.002	1	4	2	1	0.374	1	1	4_2.gif
91.003	1	3	2	2	0.315	2	1	3_2.gif
92.003	1	4	2	3	0.338	4	0	4_2.gif
93.003	1	3	2	4	0.31	3	0	3_2.gif
94.003	1	1	2	6	0	4	n/a	1_2.gif
95.003	1	2	2	6	0	3	n/a	2_2.gif
96.003	1	1	0	1	0.775	1	1	1_0.gif
97.003	1	4	0	1	0.007	4	0	4_0.gif
98.003	1	3	0	3	0.669	3	1	3_0.gif
99.003	1	2	0	2	0.611	2	1	2_0.gif
100.003	1	3	0	3	0.541	3	1	3_0.gif
101.003	1	4	0	4	0.4	4	1	4_0.gif
102.003	1	2	0	2	0.492	2	1	2_0.gif
103.003	1	4	0	4	0.492	4	1	4_0.gif
104.003	1	2	0	2	0.478	2	1	2_0.gif
105.003	1	1	0	1	0.482	1	1	1_0.gif
106.003	1	4	0	4	0.331	4	1	4_0.gif
107.003	1	1	0	1	0.518	1	1	1_0.gif
108.003	1	3	0	3	0.494	3	1	3_0.gif
109.003	1	1	0	1	0.494	1	1	1_0.gif
110.003	1	3	0	3	0.469	3	1	3_0.gif
111.003	1	1	0	1	0.482	1	1	1_0.gif
112.004	1	3	2	6	0	3	n/a	3_2.gif
113.004	1	4	2	6	0	1	n/a	4_2.gif
114.004	1	3	2	3	0.375	3	1	3_2.gif
115.004	1	4	2	4	0.313	4	1	4_2.gif
116.004	1	3	2	3	0.483	3	1	3_2.gif
117.004	1	1	2	4	0.428	4	1	1_2.gif
118.004	1	4	2	3	0.46	3	1	4_2.gif
119.004	1	1	2	4	0.678	1	0	1_2.gif
120.004	1	4	2	6	0	4	n/a	4_2.gif
121.004	1	2	2	6	0	1	n/a	2_2.gif
122.004	1	3	2	2	0.917	4	0	3_2.gif
123.004	1	4	2	2	0.008	2	1	4_2.gif
124.004	1	1	2	3	0.177	3	1	1_2.gif
125.004	1	3	2	4	0.077	4	1	3_2.gif
126.004	1	4	2	1	0.007	1	1	4_2.gif
127.004	1	1	2	3	0.006	3	1	1_2.gif
128.004	1	4	0	4	0.223	4	1	4_0.gif
129.004	1	1	0	1	0.587	1	1	1_0.gif
130.004	1	2	0	2	0.44	2	1	2_0.gif
131.004	1	4	0	4	0.308	4	1	4_0.gif
132.004	1	3	0	3	0.389	3	1	3_0.gif
133.005	1	4	0	4	0.463	4	1	4_0.gif
134.005	1	3	0	3	0.431	3	1	3_0.gif
135.005	1	4	0	4	0.375	4	1	4_0.gif
136.005	1	3	0	3	0.414	3	1	3_0.gif
137.005	1	4	0	4	0.395	4	1	4_0.gif
138.005	1	1	0	1	0.408	1	1	1_0.gif
139.005	1	3	0	3	0.483	3	1	3_0.gif
140.005	1	1	0	1	0.54	1	1	1_0.gif
141.005	1	3	0	3	0.558	3	1	3_0.gif
142.005	1	2	0	2	0.609	2	1	2_0.gif
143.005	1	1	0	1	0.552	1	1	1_0.gif
144.005	1	4	2	6	0	2	n/a	4_2.gif
145.005	1	3	2	6	0	1	n/a	3_2.gif
146.005	1	1	2	4	0.127	4	1	1_2.gif
147.005	1	4	2	3	0.04	3	1	4_2.gif
148.005	1	3	2	1	0.544	1	1	3_2.gif
149.005	1	4	2	4	0.354	4	1	4_2.gif
150.005	1	1	2	3	0.246	3	1	1_2.gif
151.005	1	4	2	4	0.236	4	1	4_2.gif
152.005	1	1	2	1	0.304	1	1	1_2.gif
153.005	1	3	2	4	0.179	4	1	3_2.gif
154.005	1	1	2	1	0.136	1	1	1_2.gif
155.005	1	2	2	3	0.077	3	1	2_2.gif
156.005	1	3	2	1	0.241	1	1	3_2.gif
157.005	1	1	2	2	0.161	2	1	1_2.gif
158.005	1	2	2	3	0.143	3	1	2_2.gif
159.005	1	1	2	1	0.101	1	1	1_2.gif
160.006	1	3	0	2	0.193	3	0	3_0.gif
161.006	1	4	0	3	0.083	4	0	4_0.gif
162.006	1	1	0	4	0.006	1	0	1_0.gif
163.006	1	4	0	4	0.405	4	1	4_0.gif
164.006	1	3	0	3	0.388	3	1	3_0.gif
165.006	1	1	0	1	0.36	1	1	1_0.gif
166.006	1	4	0	4	0.36	4	1	4_0.gif
167.006	1	2	0	2	0.33	2	1	2_0.gif
168.006	1	1	0	1	0.433	1	1	1_0.gif
169.006	1	2	0	2	0.526	2	1	2_0.gif
170.006	1	4	0	4	0.4	4	1	4_0.gif
171.006	1	3	0	3	0.36	3	1	3_0.gif
172.006	1	4	0	4	0.385	4	1	4_0.gif
173.006	1	1	0	1	0.423	1	1	1_0.gif
174.006	1	2	0	2	0.433	2	1	2_0.gif
175.006	1	3	0	3	0.382	3	1	3_0.gif
176.006	1	1	2	6	0	2	n/a	1_2.gif
177.006	1	3	2	6	0	3	n/a	3_2.gif
178.006	1	1	2	1	0.421	1	1	1_2.gif
179.006	1	3	2	3	0.369	3	1	3_2.gif
180.006	1	1	2	1	0.337	1	1	1_2.gif
181.006	1	2	2	3	0.343	3	1	2_2.gif
182.006	1	3	2	1	0.506	1	1	3_2.gif
183.006	1	4	2	2	0.446	2	1	4_2.gif
184.006	1	3	2	3	0.393	3	1	3_2.gif
185.006	1	1	2	4	0.447	4	1	1_2.gif
186.006	1	3	2	3	0.952	3	1	3_2.gif
187.006	1	4	2	3	0.007	1	0	4_2.gif
188.006	1	3	2	3	0.573	3	1	3_2.gif
189.006	1	4	2	4	0.506	4	1	4_2.gif
190.006	1	2	2	3	0.675	3	1	2_2.gif
191.006	1	4	2	2	0.576	4	0	4_2.gif
192.006	1	3	0	3	0.907	3	1	3_0.gif
193.006	1	1	0	3	0.007	1	0	1_0.gif
194.006	1	3	0	1	0.007	3	0	3_0.gif
195.006	1	4	0	3	0.006	4	0	4_0.gif
196.006	1	1	0	4	0.006	1	0	1_0.gif
197.006	1	4	0	4	0.42	4	1	4_0.gif
198.006	1	2	0	2	0.36	2	1	2_0.gif
199.006	1	1	0	1	0.279	1	1	1_0.gif
200.006	1	4	0	4	0.319	4	1	4_0.gif
201.006	1	2	0	2	0.424	2	1	2_0.gif
202.006	1	1	0	1	0.355	1	1	1_0.gif
203.006	1	3	0	3	0.438	3	1	3_0.gif
204.006	1	4	0	4	0.373	4	1	4_0.gif
205.006	1	1	0	1	0.396	1	1	1_0.gif
206.006	1	4	0	4	0.378	4	1	4_0.gif
207.006	1	1	0	1	0.544	1	1	1_0.gif
208.006	1	4	2	6	0	4	n/a	4_2.gif
209.006	1	2	2	6	0	1	n/a	2_2.gif
210.006	1	1	2	4	0.084	4	1	1_2.gif
211.006	1	3	2	2	0.085	2	1	3_2.gif
212.006	1	2	2	1	0.133	1	1	2_2.gif
213.006	1	1	2	3	0.19	3	1	1_2.gif
214.006	1	3	2	2	0.093	2	1	3_2.gif
215.006	1	4	2	1	0.378	1	1	4_2.gif
216.007	1	1	2	3	0.361	3	1	1_2.gif
217.007	1	4	2	4	0.584	4	1	4_2.gif
218.007	1	3	2	1	0.901	1	1	3_2.gif
219.007	1	4	2	1	0.006	4	0	4_2.gif
220.007	1	3	2	3	0.007	3	1	3_2.gif
221.007	1	4	2	4	0.006	4	1	4_2.gif
222.007	1	1	2	6	0	3	n/a	1_2.gif
223.007	1	3	2	4	0.285	4	1	3_2.gif
224.007	1	4	0	4	0.879	4	1	4_0.gif
225.007	1	2	0	4	0.007	2	0	2_0.gif
226.007	1	1	0	1	0.44	1	1	1_0.gif
227.007	1	2	0	2	0.606	2	1	2_0.gif
228.007	1	4	0	4	0.455	4	1	4_0.gif
229.007	1	2	0	2	0.509	2	1	2_0.gif
230.007	1	1	0	1	0.408	1	1	1_0.gif
231.007	1	2	0	2	0.488	2	1	2_0.gif
232.007	1	4	0	4	0.459	4	1	4_0.gif
233.007	1	1	0	1	0.549	1	1	1_0.gif
234.007	1	4	0	4	0.402	4	1	4_0.gif
235.007	1	2	0	2	0.375	2	1	2_0.gif
236.007	1	3	0	3	0.47	3	1	3_0.gif
237.008	1	4	0	4	0.336	4	1	4_0.gif
238.008	1	1	0	1	0.395	1	1	1_0.gif
239.008	1	4	0	4	0.387	4	1	4_0.gif
240.008	1	3	2	6	0	1	n/a	3_2.gif
241.008	1	2	2	6	0	4	n/a	2_2.gif
242.008	1	1	2	3	0.351	3	1	1_2.gif
243.008	1	2	2	2	0.454	2	1	2_2.gif
244.008	1	4	2	1	0.519	1	1	4_2.gif
245.008	1	1	2	2	0.305	2	1	1_2.gif
246.008	1	2	2	4	0.531	4	1	2_2.gif
247.008	1	1	2	1	0.864	1	1	1_2.gif
248.008	1	4	2	1	0.009	2	0	4_2.gif
249.008	1	2	2	2	0.006	1	0	2_2.gif
250.008	1	4	2	4	0.448	4	1	4_2.gif
251.008	1	3	2	2	0.458	2	1	3_2.gif
252.008	1	1	2	3	0.889	4	0	1_2.gif
253.008	1	2	2	3	0.007	3	1	2_2.gif
254.008	1	1	2	1	0.027	1	1	1_2.gif
255.008	1	2	2	2	0.107	2	1	2_2.gif
