onset	duration	nback_display	trial_type	response	response_time	correct_response	correct	stim_file
0	1	3	0	3	0.707	3	1	3_0.gif
1	1	1	0	1	0.541	1	1	1_0.gif
2	1	2	0	2	0.435	2	1	2_0.gif
3	1	3	0	3	0.37	3	1	3_0.gif
4	1	4	0	4	0.633	4	1	4_0.gif
5	1	2	0	2	0.508	2	1	2_0.gif
6	1	3	0	3	0.438	3	1	3_0.gif
7	1	4	0	4	0.573	4	1	4_0.gif
8	1	1	0	1	0.56	1	1	1_0.gif
9	1	2	0	2	0.395	2	1	2_0.gif
10	1	1	0	1	0.384	1	1	1_0.gif
11	1	2	0	2	0.315	2	1	2_0.gif
12	1	1	0	1	0.343	1	1	1_0.gif
13	1	3	0	3	0.345	3	1	3_0.gif
14	1	2	0	2	0.391	2	1	2_0.gif
15	1	4	0	4	0.471	4	1	4_0.gif
16.001	1	3	2	6	0	2	n/a	3_2.gif
17.001	1	2	2	6	0	4	n/a	2_2.gif
18.001	1	4	2	3	0.167	3	1	4_2.gif
19.001	1	1	2	2	0.162	2	1	1_2.gif
20.001	1	4	2	4	0.224	4	1	4_2.gif
21.001	1	1	2	1	0.226	1	1	1_2.gif
22.001	1	2	2	4	0.222	4	1	2_2.gif
23.001	1	3	2	1	0.187	1	1	3_2.gif
24.001	1	4	2	2	0.196	2	1	4_2.gif
25.001	1	1	2	6	0	3	n/a	1_2.gif
26.001	1	3	2	4	0.224	4	1	3_2.gif
27.001	1	2	2	1	0.255	1	1	2_2.gif
28.001	1	4	2	3	0.221	3	1	4_2.gif
29.001	1	1	2	2	0.128	2	1	1_2.gif
30.001	1	3	2	4	0.178	4	1	3_2.gif
31.001	1	4	2	1	0.155	1	1	4_2.gif
32.002	1	2	0	3	0.149	2	0	2_0.gif
33.002	1	1	0	1	0.33	1	1	1_0.gif
34.002	1	4	0	4	0.39	4	1	4_0.gif
35.002	1	3	0	3	0.396	3	1	3_0.gif
36.002	1	1	0	1	0.398	1	1	1_0.gif
37.002	1	3	0	3	0.393	3	1	3_0.gif
38.002	1	4	0	4	0.511	4	1	4_0.gif
39.002	1	3	0	3	0.417	3	1	3_0.gif
40.002	1	2	0	2	0.441	2	1	2_0.gif
41.002	1	3	0	3	0.408	3	1	3_0.gif
42.002	1	1	0	1	0.408	1	1	1_0.gif
43.002	1	2	0	2	0.437	2	1	2_0.gif
44.002	1	1	0	1	0.411	1	1	1_0.gif
45.002	1	3	0	3	0.49	3	1	3_0.gif
46.002	1	4	0	4	0.502	4	1	4_0.gif
47.002	1	3	0	3	0.402	3	1	3_0.gif
48.002	1	1	2	1	0.499	4	0	1_2.gif
49.002	1	2	2	6	0	3	n/a	2_2.gif
50.002	1	1	2	1	0.234	1	1	1_2.gif
51.002	1	4	2	2	0.212	2	1	4_2.gif
52.002	1	3	2	1	0.221	1	1	3_2.gif
53.002	1	2	2	4	0.117	4	1	2_2.gif
54.002	1	3	2	3	0.123	3	1	3_2.gif
55.002	1	1	2	2	0.079	2	1	1_2.gif
56.002	1	2	2	3	0.034	3	1	2_2.gif
57.002	1	4	2	1	0.008	1	1	4_2.gif
58.002	1	3	2	2	0.032	2	1	3_2.gif
59.002	1	2	2	4	0.042	4	1	2_2.gif
60.002	1	4	2	3	0.059	3	1	4_2.gif
61.002	1	1	2	2	0.141	2	1	1_2.gif
62.002	1	3	2	4	0.15	4	1	3_2.gif
63.002	1	2	2	1	0.146	1	1	2_2.gif
64.003	1	3	0	3	0.099	3	1	3_0.gif
65.003	1	2	0	2	0.353	2	1	2_0.gif
66.003	1	3	0	3	0.361	3	1	3_0.gif
67.003	1	1	0	1	0.381	1	1	1_0.gif
68.003	1	3	0	3	0.353	3	1	3_0.gif
69.003	1	4	0	4	0.48	4	1	4_0.gif
70.003	1	3	0	3	0.324	3	1	3_0.gif
71.003	1	1	0	1	0.401	1	1	1_0.gif
72.003	1	4	0	4	0.526	4	1	4_0.gif
73.003	1	2	0	2	0.398	2	1	2_0.gif
74.003	1	4	0	4	0.493	4	1	4_0.gif
75.003	1	2	0	2	0.364	2	1	2_0.gif
76.003	1	1	0	1	0.387	1	1	1_0.gif
77.003	1	3	0	3	0.283	3	1	3_0.gif
78.003	1	4	0	4	0.539	4	1	4_0.gif
79.003	1	2	0	2	0.436	2	1	2_0.gif
80.003	1	1	2	6	0	4	n/a	1_2.gif
81.003	1	2	2	6	0	2	n/a	2_2.gif
82.003	1	3	2	1	0.208	1	1	3_2.gif
83.003	1	1	2	2	0.224	2	1	1_2.gif
84.003	1	4	2	3	0.229	3	1	4_2.gif
85.003	1	1	2	1	0.2	1	1	1_2.gif
86.003	1	2	2	4	0.108	4	1	2_2.gif
87.003	1	3	2	1	0.15	1	1	3_2.gif
88.003	1	4	2	2	0.111	2	1	4_2.gif
89.003	1	1	2	3	0.191	3	1	1_2.gif
90.003	1	2	2	4	0.178	4	1	2_2.gif
91.003	1	3	2	1	0.178	1	1	3_2.gif
92.003	1	2	2	2	0.192	2	1	2_2.gif
93.003	1	3	2	3	0.192	3	1	3_2.gif
94.003	1	1	2	2	0.207	2	1	1_2.gif
95.003	1	2	2	1	0.208	3	0	2_2.gif
96.004	1	4	0	2	0.185	4	0	4_0.gif
97.004	1	2	0	2	0.396	2	1	2_0.gif
98.004	1	3	0	3	0.367	3	1	3_0.gif
99.004	1	2	0	2	0.334	2	1	2_0.gif
100.004	1	4	0	4	0.434	4	1	4_0.gif
101.004	1	2	0	2	0.328	2	1	2_0.gif
102.004	1	4	0	4	0.478	4	1	4_0.gif
103.004	1	1	0	1	0.394	1	1	1_0.gif
104.004	1	3	0	3	0.324	3	1	3_0.gif
105.004	1	1	0	1	0.363	1	1	1_0.gif
106.004	1	3	0	3	0.309	3	1	3_0.gif
107.004	1	4	0	4	0.476	4	1	4_0.gif
108.004	1	2	0	2	0.428	2	1	2_0.gif
109.004	1	1	0	1	0.484	1	1	1_0.gif
110.004	1	3	0	3	0.423	3	1	3_0.gif
111.004	1	4	0	4	0.415	4	1	4_0.gif
112.004	1	2	2	6	0	3	n/a	2_2.gif
113.005	1	4	2	6	0	4	n/a	4_2.gif
114.005	1	1	2	2	0.161	2	1	1_2.gif
115.005	1	4	2	4	0.082	4	1	4_2.gif
116.005	1	2	2	1	0.172	1	1	2_2.gif
117.005	1	4	2	4	0.168	4	1	4_2.gif
118.005	1	2	2	2	0.175	2	1	2_2.gif
119.005	1	1	2	4	0.218	4	1	1_2.gif
120.005	1	2	2	2	0.204	2	1	2_2.gif
121.005	1	4	2	1	0.211	1	1	4_2.gif
122.005	1	3	2	2	0.244	2	1	3_2.gif
123.005	1	4	2	4	0.194	4	1	4_2.gif
124.005	1	1	2	3	0.206	3	1	1_2.gif
125.005	1	2	2	4	0.176	4	1	2_2.gif
126.005	1	3	2	1	0.161	1	1	3_2.gif
127.005	1	1	2	6	0	2	n/a	1_2.gif
128.005	1	4	0	3	0.236	4	0	4_0.gif
129.005	1	2	0	2	0.373	2	1	2_0.gif
130.005	1	3	0	3	0.335	3	1	3_0.gif
131.005	1	1	0	1	0.333	1	1	1_0.gif
132.005	1	2	0	2	0.308	2	1	2_0.gif
133.005	1	3	0	3	0.343	3	1	3_0.gif
134.005	1	4	0	4	0.44	4	1	4_0.gif
135.005	1	3	0	3	0.42	3	1	3_0.gif
136.005	1	1	0	1	0.358	1	1	1_0.gif
137.005	1	4	0	4	0.386	4	1	4_0.gif
138.005	1	1	0	1	0.357	1	1	1_0.gif
139.005	1	4	0	4	0.4	4	1	4_0.gif
140.005	1	1	0	1	0.387	1	1	1_0.gif
141.005	1	4	0	4	0.37	4	1	4_0.gif
142.005	1	1	0	1	0.358	1	1	1_0.gif
143.005	1	4	0	4	0.423	4	1	4_0.gif
144.006	1	2	2	6	0	1	n/a	2_2.gif
145.006	1	1	2	6	0	4	n/a	1_2.gif
146.006	1	3	2	2	0.213	2	1	3_2.gif
147.006	1	1	2	1	0.148	1	1	1_2.gif
148.006	1	4	2	3	0.186	3	1	4_2.gif
149.006	1	2	2	1	0.219	1	1	2_2.gif
150.006	1	3	2	4	0.217	4	1	3_2.gif
151.006	1	1	2	2	0.237	2	1	1_2.gif
152.006	1	2	2	3	0.219	3	1	2_2.gif
153.006	1	4	2	1	0.172	1	1	4_2.gif
154.006	1	2	2	2	0.205	2	1	2_2.gif
155.006	1	3	2	4	0.126	4	1	3_2.gif
156.006	1	4	2	2	0.099	2	1	4_2.gif
157.006	1	2	2	3	0.089	3	1	2_2.gif
158.006	1	4	2	4	0.189	4	1	4_2.gif
159.006	1	2	2	2	0.201	2	1	2_2.gif
160.007	1	4	0	4	0.685	4	1	4_0.gif
161.007	1	1	0	1	0.41	1	1	1_0.gif
162.007	1	2	0	2	0.348	2	1	2_0.gif
163.007	1	1	0	1	0.404	1	1	1_0.gif
164.007	1	3	0	3	0.506	3	1	3_0.gif
165.007	1	2	0	2	0.428	2	1	2_0.gif
166.007	1	4	0	4	0.439	4	1	4_0.gif
167.007	1	3	0	3	0.382	3	1	3_0.gif
168.007	1	4	0	4	0.448	4	1	4_0.gif
169.007	1	3	0	3	0.387	3	1	3_0.gif
170.007	1	4	0	4	0.378	4	1	4_0.gif
171.007	1	1	0	1	0.348	1	1	1_0.gif
172.007	1	2	0	2	0.39	2	1	2_0.gif
173.007	1	3	0	3	0.331	3	1	3_0.gif
174.007	1	4	0	4	0.328	4	1	4_0.gif
175.007	1	2	0	2	0.343	2	1	2_0.gif
176.007	1	4	2	4	0.684	4	1	4_2.gif
177.007	1	3	2	6	0	2	n/a	3_2.gif
178.007	1	4	2	4	0.217	4	1	4_2.gif
179.007	1	2	2	3	0.252	3	1	2_2.gif
180.007	1	3	2	4	0.296	4	1	3_2.gif
181.007	1	4	2	2	0.207	2	1	4_2.gif
182.007	1	1	2	3	0.156	3	1	1_2.gif
183.007	1	4	2	4	0.132	4	1	4_2.gif
184.007	1	3	2	1	0.182	1	1	3_2.gif
185.007	1	2	2	4	0.147	4	1	2_2.gif
186.007	1	1	2	3	0.174	3	1	1_2.gif
187.007	1	2	2	2	0.113	2	1	2_2.gif
188.007	1	1	2	1	0.169	1	1	1_2.gif
189.007	1	2	2	2	0.199	2	1	2_2.gif
190.007	1	4	2	1	0.293	1	1	4_2.gif
191.007	1	2	2	2	0.267	2	1	2_2.gif
192.008	1	1	0	4	0.342	1	0	1_0.gif
193.008	1	2	0	2	0.441	2	1	2_0.gif
194.008	1	1	0	1	0.362	1	1	1_0.gif
195.008	1	4	0	4	0.399	4	1	4_0.gif
196.008	1	3	0	3	0.301	3	1	3_0.gif
197.008	1	1	0	1	0.332	1	1	1_0.gif
198.008	1	2	0	2	0.342	2	1	2_0.gif
199.008	1	3	0	3	0.372	3	1	3_0.gif
200.008	1	4	0	4	0.489	4	1	4_0.gif
201.008	1	2	0	2	0.347	2	1	2_0.gif
202.008	1	3	0	3	0.343	3	1	3_0.gif
203.008	1	4	0	4	0.433	4	1	4_0.gif
204.008	1	1	0	1	0.378	1	1	1_0.gif
205.008	1	2	0	2	0.362	2	1	2_0.gif
206.008	1	1	0	1	0.385	1	1	1_0.gif
207.008	1	2	0	2	0.351	2	1	2_0.gif
208.009	1	1	2	6	0	1	n/a	1_2.gif
209.009	1	3	2	6	0	2	n/a	3_2.gif
210.009	1	2	2	1	0.176	1	1	2_2.gif
211.01	1	4	2	3	0.19	3	1	4_2.gif
212.01	1	3	2	2	0.264	2	1	3_2.gif
213.01	1	2	2	4	0.203	4	1	2_2.gif
214.01	1	4	2	3	0.288	3	1	4_2.gif
215.01	1	1	2	2	0.257	2	1	1_2.gif
216.01	1	4	2	4	0.283	4	1	4_2.gif
217.01	1	1	2	1	0.238	1	1	1_2.gif
218.01	1	2	2	4	0.339	4	1	2_2.gif
219.01	1	3	2	1	0.282	1	1	3_2.gif
220.01	1	4	2	2	0.289	2	1	4_2.gif
221.01	1	1	2	3	0.206	3	1	1_2.gif
222.01	1	3	2	4	0.22	4	1	3_2.gif
223.01	1	2	2	1	0.241	1	1	2_2.gif
224.01	1	4	0	4	0.808	4	1	4_0.gif
225.01	1	1	0	1	0.502	1	1	1_0.gif
226.01	1	3	0	3	0.366	3	1	3_0.gif
227.01	1	4	0	4	0.454	4	1	4_0.gif
228.01	1	2	0	2	0.348	2	1	2_0.gif
229.01	1	1	0	1	0.318	1	1	1_0.gif
230.01	1	4	0	4	0.451	4	1	4_0.gif
231.01	1	3	0	3	0.365	3	1	3_0.gif
232.01	1	1	0	1	0.364	1	1	1_0.gif
233.01	1	3	0	3	0.36	3	1	3_0.gif
234.01	1	4	0	4	0.353	4	1	4_0.gif
235.01	1	3	0	3	0.334	3	1	3_0.gif
236.01	1	2	0	2	0.326	2	1	2_0.gif
237.01	1	3	0	3	0.377	3	1	3_0.gif
238.01	1	1	0	1	0.421	1	1	1_0.gif
239.01	1	2	0	2	0.357	2	1	2_0.gif
240.011	1	1	2	6	0	1	n/a	1_2.gif
241.011	1	3	2	6	0	2	n/a	3_2.gif
242.011	1	4	2	1	0.175	1	1	4_2.gif
243.011	1	3	2	3	0.168	3	1	3_2.gif
244.011	1	1	2	4	0.197	4	1	1_2.gif
245.011	1	2	2	3	0.24	3	1	2_2.gif
246.011	1	1	2	1	0.279	1	1	1_2.gif
247.011	1	4	2	2	0.234	2	1	4_2.gif
248.011	1	3	2	1	0.282	1	1	3_2.gif
249.011	1	2	2	4	0.161	4	1	2_2.gif
250.011	1	3	2	3	0.198	3	1	3_2.gif
251.011	1	1	2	2	0.146	2	1	1_2.gif
252.011	1	2	2	3	0.128	3	1	2_2.gif
253.011	1	4	2	1	0.1	1	1	4_2.gif
254.011	1	3	2	2	0.087	2	1	3_2.gif
255.011	1	2	2	4	0.034	4	1	2_2.gif
