onset	duration	nback_display	trial_type	response	response_time	correct_response	correct	stim_file
0	1	4	0	4	0.852	4	1	4_0.gif
1	1	3	0	4	0.006	3	0	3_0.gif
2	1	1	0	1	0.367	1	1	1_0.gif
3	1	4	0	4	0.445	4	1	4_0.gif
4	1	3	0	3	0.417	3	1	3_0.gif
5	1	4	0	4	0.472	4	1	4_0.gif
6	1	1	0	1	0.386	1	1	1_0.gif
7	1	4	0	4	0.429	4	1	4_0.gif
8	1	3	0	3	0.399	3	1	3_0.gif
9	1	2	0	2	0.37	2	1	2_0.gif
10	1	4	0	4	0.411	4	1	4_0.gif
11	1	1	0	1	0.358	1	1	1_0.gif
12	1	2	0	2	0.299	2	1	2_0.gif
13	1	3	0	3	0.303	3	1	3_0.gif
14	1	2	0	2	0.391	2	1	2_0.gif
15	1	3	0	3	0.441	3	1	3_0.gif
16	1	2	2	6	0	2	n/a	2_2.gif
17	1	3	2	6	0	3	n/a	3_2.gif
18	1	1	2	2	0.189	2	1	1_2.gif
19	1	4	2	3	0.222	3	1	4_2.gif
20	1	2	2	1	0.256	1	1	2_2.gif
21	1	4	2	4	0.204	4	1	4_2.gif
22	1	2	2	2	0.168	2	1	2_2.gif
23	1	4	2	4	0.207	4	1	4_2.gif
24	1	2	2	4	0.298	2	0	2_2.gif
25	1	1	2	6	0	4	n/a	1_2.gif
26	1	3	2	6	0	2	n/a	3_2.gif
27	1	1	2	1	0.349	1	1	1_2.gif
28	1	2	2	3	0.278	3	1	2_2.gif
29	1	4	2	1	0.239	1	1	4_2.gif
30	1	3	2	2	0.203	2	1	3_2.gif
31	1	4	2	4	0.342	4	1	4_2.gif
32.001	1	2	0	3	0.293	2	0	2_0.gif
33.001	1	4	0	4	0.467	4	1	4_0.gif
34.001	1	1	0	1	0.401	1	1	1_0.gif
35.002	1	3	0	3	0.404	3	1	3_0.gif
36.002	1	2	0	2	0.333	2	1	2_0.gif
37.002	1	4	0	4	0.376	4	1	4_0.gif
38.002	1	1	0	1	0.286	1	1	1_0.gif
39.002	1	2	0	2	0.303	2	1	2_0.gif
40.002	1	4	0	4	0.335	4	1	4_0.gif
41.002	1	3	0	3	0.337	3	1	3_0.gif
42.002	1	4	0	4	0.388	4	1	4_0.gif
43.002	1	2	0	2	0.287	2	1	2_0.gif
44.002	1	3	0	3	0.37	3	1	3_0.gif
45.002	1	1	0	1	0.322	1	1	1_0.gif
46.002	1	2	0	2	0.314	2	1	2_0.gif
47.002	1	4	0	4	0.266	4	1	4_0.gif
48.002	1	2	2	6	0	2	n/a	2_2.gif
49.002	1	3	2	6	0	4	n/a	3_2.gif
50.002	1	2	2	2	0.258	2	1	2_2.gif
51.002	1	4	2	3	0.24	3	1	4_2.gif
52.002	1	3	2	2	0.172	2	1	3_2.gif
53.002	1	4	2	4	0.139	4	1	4_2.gif
54.002	1	1	2	3	0.121	3	1	1_2.gif
55.002	1	2	2	4	0.007	4	1	2_2.gif
56.002	1	4	2	1	0.942	1	1	4_2.gif
57.002	1	1	2	1	0.008	2	0	1_2.gif
58.002	1	4	2	6	0	4	n/a	4_2.gif
59.002	1	3	2	6	0	1	n/a	3_2.gif
60.002	1	1	2	4	0.531	4	1	1_2.gif
61.002	1	3	2	3	0.684	3	1	3_2.gif
62.002	1	4	2	1	0.179	1	1	4_2.gif
63.002	1	3	2	4	0.808	3	0	3_2.gif
64.002	1	1	0	4	0.007	1	0	1_0.gif
65.002	1	4	0	4	0.39	4	1	4_0.gif
66.002	1	3	0	3	0.422	3	1	3_0.gif
67.002	1	4	0	4	0.491	4	1	4_0.gif
68.002	1	1	0	1	0.443	1	1	1_0.gif
69.002	1	4	0	4	0.523	4	1	4_0.gif
70.002	1	2	0	2	0.425	2	1	2_0.gif
71.002	1	1	0	1	0.458	1	1	1_0.gif
72.002	1	3	0	3	0.427	3	1	3_0.gif
73.002	1	1	0	1	0.43	1	1	1_0.gif
74.002	1	3	0	3	0.378	3	1	3_0.gif
75.002	1	2	0	2	0.383	2	1	2_0.gif
76.002	1	4	0	4	0.409	4	1	4_0.gif
77.002	1	1	0	1	0.368	1	1	1_0.gif
78.002	1	3	0	3	0.387	3	1	3_0.gif
79.002	1	2	0	2	0.314	2	1	2_0.gif
80.003	1	3	2	6	0	3	n/a	3_2.gif
81.003	1	4	2	6	0	2	n/a	4_2.gif
82.003	1	1	2	3	0.273	3	1	1_2.gif
83.003	1	3	2	4	0.204	4	1	3_2.gif
84.003	1	1	2	1	0.237	1	1	1_2.gif
85.003	1	3	2	3	0.307	3	1	3_2.gif
86.003	1	2	2	1	0.235	1	1	2_2.gif
87.003	1	1	2	3	0.12	3	1	1_2.gif
88.003	1	2	2	2	0.262	2	1	2_2.gif
89.003	1	4	2	1	0.488	1	1	4_2.gif
90.003	1	3	2	2	0.374	2	1	3_2.gif
91.003	1	1	2	4	0.428	4	1	1_2.gif
92.003	1	3	2	3	0.496	3	1	3_2.gif
93.003	1	4	2	1	0.402	1	1	4_2.gif
94.003	1	1	2	6	0	3	n/a	1_2.gif
95.003	1	2	2	4	0.251	4	1	2_2.gif
96.003	1	4	0	1	0.364	4	0	4_0.gif
97.003	1	3	0	4	0.007	3	0	3_0.gif
98.003	1	1	0	1	0.3	1	1	1_0.gif
99.003	1	4	0	4	0.32	4	1	4_0.gif
100.003	1	3	0	3	0.38	3	1	3_0.gif
101.003	1	1	0	1	0.464	1	1	1_0.gif
102.003	1	2	0	2	0.43	2	1	2_0.gif
103.003	1	3	0	3	0.422	3	1	3_0.gif
104.003	1	1	0	1	0.49	1	1	1_0.gif
105.003	1	2	0	2	0.477	2	1	2_0.gif
106.003	1	3	0	3	0.491	3	1	3_0.gif
107.003	1	2	0	2	0.466	2	1	2_0.gif
108.004	1	1	0	1	0.459	1	1	1_0.gif
109.004	1	2	0	2	0.41	2	1	2_0.gif
110.004	1	4	0	4	0.414	4	1	4_0.gif
111.004	1	1	0	1	0.437	1	1	1_0.gif
112.004	1	4	2	6	0	4	n/a	4_2.gif
113.004	1	2	2	6	0	1	n/a	2_2.gif
114.004	1	4	2	4	0.303	4	1	4_2.gif
115.004	1	2	2	2	0.163	2	1	2_2.gif
116.004	1	4	2	4	0.272	4	1	4_2.gif
117.004	1	1	2	2	0.354	2	1	1_2.gif
118.004	1	3	2	1	0.76	4	0	3_2.gif
119.004	1	1	2	1	0.009	1	1	1_2.gif
120.004	1	2	2	3	0.006	3	1	2_2.gif
121.004	1	1	2	1	0.006	1	1	1_2.gif
122.004	1	3	2	2	0.129	2	1	3_2.gif
123.004	1	2	2	6	0	1	n/a	2_2.gif
124.004	1	3	2	3	0.092	3	1	3_2.gif
125.004	1	1	2	2	0.007	2	1	1_2.gif
126.004	1	4	2	3	0.006	3	1	4_2.gif
127.004	1	1	2	1	0.006	1	1	1_2.gif
128.004	1	3	0	4	0.024	3	0	3_0.gif
129.005	1	1	0	1	0.289	1	1	1_0.gif
130.005	1	4	0	4	0.243	4	1	4_0.gif
131.005	1	2	0	2	0.25	2	1	2_0.gif
132.005	1	1	0	1	0.361	1	1	1_0.gif
133.005	1	4	0	4	0.241	4	1	4_0.gif
134.005	1	1	0	1	0.432	1	1	1_0.gif
135.005	1	3	0	3	0.34	3	1	3_0.gif
136.005	1	4	0	4	0.358	4	1	4_0.gif
137.005	1	1	0	1	0.382	1	1	1_0.gif
138.005	1	4	0	4	0.362	4	1	4_0.gif
139.005	1	2	0	2	0.381	2	1	2_0.gif
140.005	1	1	0	1	0.361	1	1	1_0.gif
141.005	1	2	0	2	0.404	2	1	2_0.gif
142.005	1	4	0	4	0.389	4	1	4_0.gif
143.005	1	3	0	3	0.438	3	1	3_0.gif
144.005	1	2	2	2	0.457	4	0	2_2.gif
145.005	1	3	2	6	0	3	n/a	3_2.gif
146.005	1	2	2	2	0.234	2	1	2_2.gif
147.005	1	3	2	3	0.175	3	1	3_2.gif
148.005	1	4	2	2	0.185	2	1	4_2.gif
149.005	1	2	2	3	0.29	3	1	2_2.gif
150.005	1	4	2	4	0.815	4	1	4_2.gif
151.005	1	2	2	2	0.262	2	1	2_2.gif
152.005	1	3	2	4	0.351	4	1	3_2.gif
153.005	1	2	2	2	0.197	2	1	2_2.gif
154.005	1	3	2	3	0.191	3	1	3_2.gif
155.005	1	4	2	2	0.165	2	1	4_2.gif
156.005	1	2	2	3	0.249	3	1	2_2.gif
157.005	1	3	2	4	0.09	4	1	3_2.gif
158.005	1	4	2	6	0	2	n/a	4_2.gif
159.005	1	1	2	3	0.636	3	1	1_2.gif
160.005	1	3	0	3	0.622	3	1	3_0.gif
161.005	1	1	0	1	0.32	1	1	1_0.gif
162.005	1	3	0	3	0.4	3	1	3_0.gif
163.005	1	1	0	1	0.346	1	1	1_0.gif
164.005	1	2	0	2	0.349	2	1	2_0.gif
165.005	1	3	0	3	0.567	3	1	3_0.gif
166.005	1	2	0	2	0.411	2	1	2_0.gif
167.005	1	4	0	4	0.407	4	1	4_0.gif
168.005	1	3	0	3	0.37	3	1	3_0.gif
169.005	1	2	0	2	0.323	2	1	2_0.gif
170.005	1	4	0	4	0.321	4	1	4_0.gif
171.005	1	1	0	1	0.378	1	1	1_0.gif
172.005	1	4	0	4	0.4	4	1	4_0.gif
173.005	1	1	0	1	0.36	1	1	1_0.gif
174.005	1	3	0	3	0.485	3	1	3_0.gif
175.005	1	2	0	2	0.36	2	1	2_0.gif
176.005	1	4	2	6	0	3	n/a	4_2.gif
177.005	1	1	2	6	0	2	n/a	1_2.gif
178.006	1	3	2	4	0.226	4	1	3_2.gif
179.006	1	2	2	1	0.226	1	1	2_2.gif
180.006	1	4	2	3	0.231	3	1	4_2.gif
181.006	1	1	2	2	0.237	2	1	1_2.gif
182.006	1	4	2	6	0	4	n/a	4_2.gif
183.006	1	2	2	4	0.507	1	0	2_2.gif
184.006	1	4	2	4	0.206	4	1	4_2.gif
185.006	1	1	2	2	0.006	2	1	1_2.gif
186.006	1	3	2	1	0.983	4	0	3_2.gif
187.006	1	1	2	1	0.006	1	1	1_2.gif
188.006	1	2	2	3	0.149	3	1	2_2.gif
189.006	1	3	2	1	0.389	1	1	3_2.gif
190.006	1	1	2	2	0.506	2	1	1_2.gif
191.006	1	3	2	3	0.571	3	1	3_2.gif
192.006	1	2	0	2	0.672	2	1	2_0.gif
193.006	1	3	0	3	0.361	3	1	3_0.gif
194.006	1	2	0	2	0.381	2	1	2_0.gif
195.006	1	3	0	3	0.254	3	1	3_0.gif
196.006	1	1	0	1	0.311	1	1	1_0.gif
197.006	1	3	0	3	0.36	3	1	3_0.gif
198.006	1	1	0	1	0.328	1	1	1_0.gif
199.006	1	4	0	4	0.326	4	1	4_0.gif
200.006	1	3	0	3	0.422	3	1	3_0.gif
201.006	1	1	0	1	0.3	1	1	1_0.gif
202.006	1	4	0	4	0.533	4	1	4_0.gif
203.006	1	3	0	3	0.38	3	1	3_0.gif
204.006	1	4	0	4	0.412	4	1	4_0.gif
205.006	1	1	0	1	0.319	1	1	1_0.gif
206.006	1	4	0	4	0.306	4	1	4_0.gif
207.006	1	3	0	3	0.41	3	1	3_0.gif
208.006	1	2	2	6	0	4	n/a	2_2.gif
209.006	1	4	2	6	0	3	n/a	4_2.gif
210.007	1	1	2	2	0.289	2	1	1_2.gif
211.007	1	2	2	4	0.21	4	1	2_2.gif
212.007	1	3	2	1	0.419	1	1	3_2.gif
213.007	1	2	2	2	0.328	2	1	2_2.gif
214.007	1	3	2	3	0.51	3	1	3_2.gif
215.007	1	2	2	2	0.48	2	1	2_2.gif
216.007	1	3	2	3	0.499	3	1	3_2.gif
217.007	1	1	2	6	0	2	n/a	1_2.gif
218.007	1	4	2	6	0	3	n/a	4_2.gif
219.007	1	2	2	1	0.247	1	1	2_2.gif
220.007	1	4	2	4	0.394	4	1	4_2.gif
221.007	1	2	2	2	0.27	2	1	2_2.gif
222.007	1	4	2	4	0.455	4	1	4_2.gif
223.007	1	2	2	2	0.283	2	1	2_2.gif
224.007	1	1	0	6	0	1	n/a	1_0.gif
225.007	1	3	0	3	0.266	3	1	3_0.gif
226.007	1	1	0	1	0.376	1	1	1_0.gif
227.007	1	2	0	2	0.395	2	1	2_0.gif
228.007	1	4	0	4	0.326	4	1	4_0.gif
229.007	1	3	0	3	0.433	3	1	3_0.gif
230.007	1	4	0	4	0.595	4	1	4_0.gif
231.007	1	2	0	2	0.356	2	1	2_0.gif
232.007	1	4	0	4	0.332	4	1	4_0.gif
233.007	1	1	0	1	0.367	1	1	1_0.gif
234.007	1	3	0	3	0.311	3	1	3_0.gif
235.007	1	2	0	2	0.383	2	1	2_0.gif
236.007	1	4	0	4	0.334	4	1	4_0.gif
237.007	1	1	0	1	0.295	1	1	1_0.gif
238.007	1	2	0	2	0.397	2	1	2_0.gif
239.007	1	4	0	4	0.345	4	1	4_0.gif
240.007	1	3	2	6	0	2	n/a	3_2.gif
241.007	1	4	2	6	0	4	n/a	4_2.gif
242.007	1	2	2	3	0.189	3	1	2_2.gif
243.007	1	3	2	4	0.176	4	1	3_2.gif
244.007	1	1	2	2	0.239	2	1	1_2.gif
245.007	1	2	2	3	0.27	3	1	2_2.gif
246.007	1	4	2	1	0.196	1	1	4_2.gif
247.007	1	2	2	2	0.162	2	1	2_2.gif
248.007	1	3	2	4	0.305	4	1	3_2.gif
249.007	1	2	2	6	0	2	n/a	2_2.gif
250.007	1	4	2	3	0.185	3	1	4_2.gif
251.007	1	3	2	2	0.179	2	1	3_2.gif
252.007	1	4	2	4	0.047	4	1	4_2.gif
253.007	1	1	2	3	0.007	3	1	1_2.gif
254.007	1	2	2	4	0.007	4	1	2_2.gif
255.008	1	4	2	6	0	1	n/a	4_2.gif
