onset	duration	nback_display	trial_type	response	response_time	correct_response	correct	stim_file
0	1	3	0	6	0	3	n/a	3_0.gif
1	1	1	0	3	0.264	1	0	1_0.gif
2	1	3	0	1	0.013	3	0	3_0.gif
3	1	2	0	3	0.014	2	0	2_0.gif
4	1	3	0	3	0.615	3	1	3_0.gif
5	1	4	0	4	0.58	4	1	4_0.gif
6	1	2	0	2	0.545	2	1	2_0.gif
7	1	1	0	1	0.498	1	1	1_0.gif
8	1	4	0	4	0.664	4	1	4_0.gif
9	1	2	0	2	0.536	2	1	2_0.gif
10	1	4	0	4	0.544	4	1	4_0.gif
11	1	1	0	1	0.481	1	1	1_0.gif
12	1	2	0	2	0.41	2	1	2_0.gif
13	1	1	0	1	0.555	1	1	1_0.gif
14	1	2	0	2	0.42	2	1	2_0.gif
15	1	1	0	1	0.445	1	1	1_0.gif
16.001	1	4	2	6	0	2	n/a	4_2.gif
17.001	1	2	2	6	0	1	n/a	2_2.gif
18.001	1	4	2	4	0.286	4	1	4_2.gif
19.001	1	3	2	2	0.013	2	1	3_2.gif
20.001	1	1	2	4	0.013	4	1	1_2.gif
21.001	1	2	2	1	0.283	3	0	2_2.gif
22.001	1	4	2	2	0.446	1	0	4_2.gif
23.001	1	1	2	4	0.52	2	0	1_2.gif
24.001	1	4	2	1	0.359	4	0	4_2.gif
25.001	1	1	2	4	0.191	1	0	1_2.gif
26.001	1	2	2	1	0.013	4	0	2_2.gif
27.001	1	3	2	2	0.013	1	0	3_2.gif
28.001	1	4	2	4	0.602	2	0	4_2.gif
29.001	1	1	2	1	0.754	3	0	1_2.gif
30.001	1	2	2	1	0.013	4	0	2_2.gif
31.001	1	1	2	1	0.552	1	1	1_2.gif
32.001	1	3	0	3	0.503	3	1	3_0.gif
33.001	1	4	0	4	0.58	4	1	4_0.gif
34.001	1	2	0	2	0.501	2	1	2_0.gif
35.001	1	1	0	1	0.442	1	1	1_0.gif
36.001	1	4	0	4	0.474	4	1	4_0.gif
37.001	1	3	0	3	0.493	3	1	3_0.gif
38.001	1	4	0	4	0.463	4	1	4_0.gif
39.001	1	3	0	3	0.466	3	1	3_0.gif
40.001	1	4	0	4	0.47	4	1	4_0.gif
41.001	1	3	0	3	0.429	3	1	3_0.gif
42.001	1	2	0	2	0.457	2	1	2_0.gif
43.001	1	3	0	3	0.494	3	1	3_0.gif
44.001	1	1	0	1	0.397	1	1	1_0.gif
45.001	1	2	0	2	0.413	2	1	2_0.gif
46.001	1	3	0	3	0.504	3	1	3_0.gif
47.001	1	1	0	1	0.514	1	1	1_0.gif
48.002	1	3	2	6	0	3	n/a	3_2.gif
49.002	1	1	2	6	0	1	n/a	1_2.gif
50.002	1	2	2	3	0.396	3	1	2_2.gif
51.002	1	1	2	1	0.037	1	1	1_2.gif
52.002	1	4	2	1	0.593	2	0	4_2.gif
53.002	1	3	2	4	0.357	1	0	3_2.gif
54.002	1	1	2	3	0.291	4	0	1_2.gif
55.002	1	3	2	1	0.166	3	0	3_2.gif
56.002	1	1	2	3	0.018	1	0	1_2.gif
57.002	1	4	2	4	0.596	3	0	4_2.gif
58.002	1	3	2	3	0.561	1	0	3_2.gif
59.002	1	2	2	2	0.611	4	0	2_2.gif
60.002	1	4	2	4	0.548	3	0	4_2.gif
61.002	1	1	2	1	0.447	2	0	1_2.gif
62.002	1	2	2	2	0.518	4	0	2_2.gif
63.002	1	4	2	4	0.472	1	0	4_2.gif
64.003	1	2	0	2	0.75	2	1	2_0.gif
65.003	1	3	0	3	0.846	3	1	3_0.gif
66.003	1	1	0	3	0.014	1	0	1_0.gif
67.003	1	3	0	3	0.594	3	1	3_0.gif
68.003	1	4	0	4	0.401	4	1	4_0.gif
69.003	1	3	0	3	0.439	3	1	3_0.gif
70.003	1	4	0	4	0.487	4	1	4_0.gif
71.003	1	2	0	2	0.467	2	1	2_0.gif
72.003	1	4	0	4	0.503	4	1	4_0.gif
73.003	1	2	0	2	0.444	2	1	2_0.gif
74.003	1	1	0	1	0.526	1	1	1_0.gif
75.003	1	2	0	2	0.459	2	1	2_0.gif
76.003	1	3	0	3	0.495	3	1	3_0.gif
77.003	1	4	0	4	0.463	4	1	4_0.gif
78.003	1	2	0	2	0.332	2	1	2_0.gif
79.003	1	1	0	1	0.367	1	1	1_0.gif
80.003	1	4	2	6	0	2	n/a	4_2.gif
81.003	1	1	2	6	0	1	n/a	1_2.gif
82.003	1	3	2	4	0.249	4	1	3_2.gif
83.003	1	1	2	1	0.076	1	1	1_2.gif
84.003	1	2	2	3	0.014	3	1	2_2.gif
85.003	1	1	2	2	0.853	1	0	1_2.gif
86.003	1	4	2	2	0.014	2	1	4_2.gif
87.003	1	1	2	6	0	1	n/a	1_2.gif
88.003	1	4	2	6	0	4	n/a	4_2.gif
89.008	1	1	2	6	0	1	n/a	1_2.gif
90.008	1	3	2	4	0.218	4	1	3_2.gif
91.008	1	2	2	1	0.013	1	1	2_2.gif
92.008	1	3	2	2	0.387	3	0	3_2.gif
93.008	1	4	2	3	0.359	2	0	4_2.gif
94.008	1	1	2	4	0.21	3	0	1_2.gif
95.008	1	3	2	6	0	4	n/a	3_2.gif
96.009	1	2	0	3	0.195	2	0	2_0.gif
97.009	1	3	0	2	0.013	3	0	3_0.gif
98.009	1	4	0	3	0.013	4	0	4_0.gif
99.009	1	2	0	2	0.419	2	1	2_0.gif
100.009	1	4	0	4	0.422	4	1	4_0.gif
101.009	1	2	0	2	0.441	2	1	2_0.gif
102.009	1	4	0	4	0.432	4	1	4_0.gif
103.009	1	1	0	1	0.493	1	1	1_0.gif
104.009	1	3	0	3	0.55	3	1	3_0.gif
105.009	1	2	0	2	0.459	2	1	2_0.gif
106.009	1	1	0	6	0	1	n/a	1_0.gif
107.009	1	2	0	2	0.802	2	1	2_0.gif
108.009	1	1	0	2	0.015	1	0	1_0.gif
109.009	1	3	0	3	0.526	3	1	3_0.gif
110.009	1	4	0	4	0.517	4	1	4_0.gif
111.009	1	2	0	2	0.329	2	1	2_0.gif
112.009	1	4	2	6	0	4	n/a	4_2.gif
113.009	1	1	2	6	0	2	n/a	1_2.gif
114.009	1	4	2	4	0.204	4	1	4_2.gif
115.009	1	2	2	1	0.014	1	1	2_2.gif
116.009	1	4	2	4	0.014	4	1	4_2.gif
117.009	1	2	2	4	0.303	2	0	2_2.gif
118.009	1	1	2	2	0.292	4	0	1_2.gif
119.009	1	2	2	1	0.177	2	0	2_2.gif
120.009	1	3	2	2	0.015	1	0	3_2.gif
121.009	1	4	2	4	0.787	2	0	4_2.gif
122.009	1	1	2	1	0.619	3	0	1_2.gif
123.009	1	2	2	2	0.449	4	0	2_2.gif
124.009	1	4	2	4	0.582	1	0	4_2.gif
125.009	1	3	2	3	0.61	2	0	3_2.gif
126.009	1	4	2	4	0.579	4	1	4_2.gif
127.009	1	3	2	3	0.616	3	1	3_2.gif
128.01	1	4	0	4	0.686	4	1	4_0.gif
129.01	1	3	0	3	0.538	3	1	3_0.gif
130.01	1	1	0	1	0.387	1	1	1_0.gif
131.01	1	3	0	3	0.458	3	1	3_0.gif
132.01	1	1	0	1	0.499	1	1	1_0.gif
133.01	1	4	0	4	0.425	4	1	4_0.gif
134.01	1	1	0	1	0.562	1	1	1_0.gif
135.01	1	4	0	4	0.389	4	1	4_0.gif
136.01	1	1	0	1	0.566	1	1	1_0.gif
137.01	1	4	0	4	0.502	4	1	4_0.gif
138.01	1	1	0	1	0.442	1	1	1_0.gif
139.01	1	3	0	3	0.497	3	1	3_0.gif
140.01	1	4	0	4	0.497	4	1	4_0.gif
141.01	1	1	0	1	0.411	1	1	1_0.gif
142.01	1	2	0	2	0.36	2	1	2_0.gif
143.01	1	1	0	1	0.483	1	1	1_0.gif
144.01	1	2	2	6	0	2	n/a	2_2.gif
145.01	1	3	2	6	0	1	n/a	3_2.gif
146.011	1	1	2	2	0.294	2	1	1_2.gif
147.011	1	4	2	3	0.199	3	1	4_2.gif
148.011	1	3	2	1	0.054	1	1	3_2.gif
149.011	1	1	2	4	0.014	4	1	1_2.gif
150.011	1	4	2	1	0.615	3	0	4_2.gif
151.011	1	1	2	4	0.423	1	0	1_2.gif
152.011	1	2	2	1	0.217	4	0	2_2.gif
153.011	1	1	2	2	0.151	1	0	1_2.gif
154.011	1	2	2	1	0.096	2	0	2_2.gif
155.011	1	3	2	2	0.029	1	0	3_2.gif
156.011	1	4	2	3	0.099	2	0	4_2.gif
157.011	1	3	2	4	0.013	3	0	3_2.gif
158.011	1	4	2	4	0.769	4	1	4_2.gif
159.011	1	3	2	3	0.682	3	1	3_2.gif
160.011	1	4	0	4	0.911	4	1	4_0.gif
161.011	1	1	0	4	0.013	1	0	1_0.gif
162.011	1	4	0	4	0.537	4	1	4_0.gif
163.011	1	3	0	3	0.515	3	1	3_0.gif
164.011	1	4	0	4	0.511	4	1	4_0.gif
165.011	1	2	0	2	0.491	2	1	2_0.gif
166.011	1	4	0	4	0.473	4	1	4_0.gif
167.011	1	3	0	3	0.455	3	1	3_0.gif
168.011	1	4	0	4	0.479	4	1	4_0.gif
169.011	1	2	0	2	0.517	2	1	2_0.gif
170.011	1	3	0	3	0.48	3	1	3_0.gif
171.011	1	4	0	4	0.479	4	1	4_0.gif
172.011	1	1	0	1	0.529	1	1	1_0.gif
173.011	1	4	0	4	0.471	4	1	4_0.gif
174.011	1	3	0	3	0.433	3	1	3_0.gif
175.011	1	2	0	2	0.461	2	1	2_0.gif
176.012	1	3	2	6	0	3	n/a	3_2.gif
177.012	1	2	2	6	0	2	n/a	2_2.gif
178.012	1	1	2	3	0.205	3	1	1_2.gif
179.012	1	4	2	2	0.086	2	1	4_2.gif
180.012	1	1	2	1	0.013	1	1	1_2.gif
181.012	1	2	2	1	0.614	4	0	2_2.gif
182.012	1	4	2	2	0.388	1	0	4_2.gif
183.012	1	2	2	4	0.227	2	0	2_2.gif
184.012	1	4	2	2	0.13	4	0	4_2.gif
185.012	1	2	2	4	0.014	2	0	2_2.gif
186.012	1	4	2	2	0.014	4	0	4_2.gif
187.012	1	3	2	4	0.013	2	0	3_2.gif
188.012	1	1	2	1	0.679	4	0	1_2.gif
189.012	1	3	2	6	0	3	n/a	3_2.gif
190.012	1	2	2	6	0	1	n/a	2_2.gif
191.012	1	3	2	2	0.103	3	0	3_2.gif
192.015	1	4	0	3	0.078	4	0	4_0.gif
193.015	1	2	0	4	0.014	2	0	2_0.gif
194.015	1	1	0	2	0.014	1	0	1_0.gif
195.015	1	4	0	4	0.463	4	1	4_0.gif
196.015	1	2	0	2	0.463	2	1	2_0.gif
197.015	1	4	0	4	0.544	4	1	4_0.gif
198.015	1	1	0	1	0.422	1	1	1_0.gif
199.015	1	2	0	2	0.35	2	1	2_0.gif
200.015	1	1	0	1	0.432	1	1	1_0.gif
201.015	1	2	0	2	0.434	2	1	2_0.gif
202.015	1	1	0	1	0.44	1	1	1_0.gif
203.015	1	4	0	4	0.375	4	1	4_0.gif
204.015	1	2	0	2	0.508	2	1	2_0.gif
205.015	1	4	0	4	0.474	4	1	4_0.gif
206.015	1	3	0	3	0.538	3	1	3_0.gif
207.015	1	1	0	1	0.51	1	1	1_0.gif
208.016	1	2	2	6	0	3	n/a	2_2.gif
209.016	1	4	2	6	0	1	n/a	4_2.gif
210.016	1	1	2	2	0.194	2	1	1_2.gif
211.016	1	4	2	4	0.025	4	1	4_2.gif
212.016	1	1	2	1	0.014	1	1	1_2.gif
213.016	1	2	2	1	0.382	4	0	2_2.gif
214.016	1	3	2	2	0.214	1	0	3_2.gif
215.016	1	4	2	3	0.08	2	0	4_2.gif
216.016	1	1	2	4	0.233	3	0	1_2.gif
217.016	1	2	2	1	0.049	4	0	2_2.gif
218.016	1	1	2	2	0.014	1	0	1_2.gif
219.016	1	3	2	3	0.655	2	0	3_2.gif
220.016	1	4	2	4	0.438	1	0	4_2.gif
221.016	1	2	2	2	0.661	3	0	2_2.gif
222.016	1	1	2	1	0.53	4	0	1_2.gif
223.016	1	4	2	4	0.76	2	0	4_2.gif
224.016	1	3	0	4	0.014	3	0	3_0.gif
225.016	1	4	0	4	0.55	4	1	4_0.gif
226.016	1	3	0	3	0.405	3	1	3_0.gif
227.016	1	4	0	4	0.423	4	1	4_0.gif
228.016	1	3	0	3	0.402	3	1	3_0.gif
229.016	1	2	0	2	0.429	2	1	2_0.gif
230.016	1	3	0	3	0.426	3	1	3_0.gif
231.016	1	1	0	1	0.399	1	1	1_0.gif
232.016	1	2	0	2	0.394	2	1	2_0.gif
233.017	1	3	0	3	0.532	3	1	3_0.gif
234.017	1	1	0	1	0.443	1	1	1_0.gif
235.017	1	3	0	3	0.581	3	1	3_0.gif
236.017	1	1	0	1	0.498	1	1	1_0.gif
237.017	1	2	0	2	0.383	2	1	2_0.gif
238.017	1	1	0	1	0.607	1	1	1_0.gif
239.017	1	4	0	4	0.607	4	1	4_0.gif
240.017	1	3	2	3	0.561	1	0	3_2.gif
241.017	1	1	2	6	0	4	n/a	1_2.gif
242.017	1	3	2	6	0	3	n/a	3_2.gif
243.017	1	1	2	3	0.383	1	0	1_2.gif
244.017	1	4	2	1	0.424	3	0	4_2.gif
245.017	1	3	2	4	0.313	1	0	3_2.gif
246.017	1	2	2	3	0.372	4	0	2_2.gif
247.017	1	4	2	2	0.562	3	0	4_2.gif
248.017	1	1	2	4	0.33	2	0	1_2.gif
249.017	1	2	2	1	0.415	4	0	2_2.gif
250.017	1	4	2	2	0.013	1	0	4_2.gif
251.017	1	2	2	6	0	2	n/a	2_2.gif
252.017	1	3	2	6	0	4	n/a	3_2.gif
253.017	1	1	2	2	0.425	2	1	1_2.gif
254.017	1	3	2	3	0.194	3	1	3_2.gif
255.017	1	4	2	1	0.014	1	1	4_2.gif
