onset	duration	nback_display	trial_type	response	response_time	correct_response	correct	stim_file
0	1	2	0	6	0	2	n/a	2_0.gif
1	1	1	0	2	0.307	1	0	1_0.gif
2	1	4	0	1	0.003	4	0	4_0.gif
3	1	2	0	2	0.503	2	1	2_0.gif
4	1	1	0	1	0.388	1	1	1_0.gif
5	1	4	0	4	0.434	4	1	4_0.gif
6	1	2	0	2	0.465	2	1	2_0.gif
7	1	1	0	1	0.275	1	1	1_0.gif
8	1	2	0	2	0.478	2	1	2_0.gif
9	1	3	0	3	0.483	3	1	3_0.gif
10	1	1	0	1	0.444	1	1	1_0.gif
11	1	3	0	3	0.492	3	1	3_0.gif
12	1	4	0	4	0.408	4	1	4_0.gif
13	1	1	0	1	0.409	1	1	1_0.gif
14	1	4	0	4	0.458	4	1	4_0.gif
15	1	1	0	1	0.328	1	1	1_0.gif
16	1	4	2	6	0	4	n/a	4_2.gif
17	1	3	2	6	0	1	n/a	3_2.gif
18	1	1	2	4	0.485	4	1	1_2.gif
19	1	4	2	3	0.391	3	1	4_2.gif
20	1	2	2	1	0.372	1	1	2_2.gif
21	1	3	2	4	0.362	4	1	3_2.gif
22	1	1	2	2	0.308	2	1	1_2.gif
23	1	3	2	3	0.24	3	1	3_2.gif
24	1	1	2	1	0.205	1	1	1_2.gif
25	1	4	2	3	0.213	3	1	4_2.gif
26	1	1	2	4	0.246	1	0	1_2.gif
27	1	3	2	1	0.233	4	0	3_2.gif
28	1	4	2	6	0	1	n/a	4_2.gif
29	1	1	2	6	0	3	n/a	1_2.gif
30	1	4	2	3	0.042	4	0	4_2.gif
31	1	3	2	1	0.473	1	1	3_2.gif
32	1	4	0	3	0.184	4	0	4_0.gif
33	1	1	0	4	0.004	1	0	1_0.gif
34	1	3	0	3	0.443	3	1	3_0.gif
35	1	4	0	4	0.32	4	1	4_0.gif
36	1	2	0	2	0.311	2	1	2_0.gif
37	1	1	0	1	0.298	1	1	1_0.gif
38	1	2	0	4	0.546	2	0	2_0.gif
39	1	1	0	1	0.982	1	1	1_0.gif
40	1	2	0	1	0.003	2	0	2_0.gif
41	1	1	0	1	0.57	1	1	1_0.gif
42	1	3	0	3	0.539	3	1	3_0.gif
43	1	4	0	4	0.374	4	1	4_0.gif
44	1	1	0	1	0.393	1	1	1_0.gif
45	1	2	0	6	0	2	n/a	2_0.gif
46	1	4	0	4	0.307	4	1	4_0.gif
47	1	3	0	3	0.263	3	1	3_0.gif
48.001	1	4	2	6	0	4	n/a	4_2.gif
49.001	1	2	2	6	0	3	n/a	2_2.gif
50.001	1	3	2	4	0.548	4	1	3_2.gif
51.001	1	1	2	6	0	2	n/a	1_2.gif
52.001	1	2	2	2	0.005	3	0	2_2.gif
53.001	1	3	2	1	0.653	1	1	3_2.gif
54.001	1	4	2	2	0.718	2	1	4_2.gif
55.001	1	1	2	3	0.618	3	1	1_2.gif
56.001	1	2	2	4	0.421	4	1	2_2.gif
57.001	1	1	2	1	0.249	1	1	1_2.gif
58.001	1	4	2	2	0.119	2	1	4_2.gif
59.001	1	2	2	1	0.176	1	1	2_2.gif
60.001	1	4	2	4	0.118	4	1	4_2.gif
61.001	1	3	2	2	0.003	2	1	3_2.gif
62.001	1	1	2	3	0.003	4	0	1_2.gif
63.001	1	2	2	1	0.003	3	0	2_2.gif
64.001	1	1	0	1	0.818	1	1	1_0.gif
65.001	1	3	0	1	0.003	3	0	3_0.gif
66.001	1	1	0	1	0.668	1	1	1_0.gif
67.001	1	2	0	2	0.601	2	1	2_0.gif
68.001	1	4	0	4	0.422	4	1	4_0.gif
69.001	1	1	0	1	0.51	1	1	1_0.gif
70.001	1	2	0	6	0	2	n/a	2_0.gif
71.001	1	4	0	6	0	4	n/a	4_0.gif
72.001	1	2	0	6	0	2	n/a	2_0.gif
73.001	1	1	0	1	0.691	1	1	1_0.gif
74.001	1	4	0	4	0.501	4	1	4_0.gif
75.001	1	3	0	3	0.51	3	1	3_0.gif
76.001	1	4	0	6	0	4	n/a	4_0.gif
77.001	1	2	0	2	0.498	2	1	2_0.gif
78.001	1	4	0	6	0	4	n/a	4_0.gif
79.001	1	2	0	6	0	2	n/a	2_0.gif
80.001	1	4	2	6	0	4	n/a	4_2.gif
81.001	1	1	2	6	0	2	n/a	1_2.gif
82.001	1	4	2	4	0.424	4	1	4_2.gif
83.001	1	3	2	1	0.376	1	1	3_2.gif
84.001	1	2	2	3	0.383	4	0	2_2.gif
85.001	1	3	2	6	0	3	n/a	3_2.gif
86.001	1	4	2	6	0	2	n/a	4_2.gif
87.001	1	1	2	6	0	3	n/a	1_2.gif
88.001	1	2	2	1	0.691	4	0	2_2.gif
89.001	1	3	2	1	0.003	1	1	3_2.gif
90.001	1	1	2	6	0	2	n/a	1_2.gif
91.001	1	2	2	6	0	3	n/a	2_2.gif
92.001	1	1	2	1	0.628	1	1	1_2.gif
93.001	1	3	2	6	0	2	n/a	3_2.gif
94.001	1	4	2	6	0	1	n/a	4_2.gif
95.001	1	3	2	3	0.636	3	1	3_2.gif
96.001	1	1	0	1	0.676	1	1	1_0.gif
97.001	1	2	0	2	0.54	2	1	2_0.gif
98.001	1	1	0	1	0.59	1	1	1_0.gif
99.001	1	4	0	4	0.526	4	1	4_0.gif
100.001	1	3	0	3	0.515	3	1	3_0.gif
101.001	1	4	0	4	0.575	4	1	4_0.gif
102.001	1	2	0	2	0.391	2	1	2_0.gif
103.001	1	4	0	4	0.5	4	1	4_0.gif
104.001	1	2	0	2	0.561	2	1	2_0.gif
105.001	1	4	0	4	0.309	4	1	4_0.gif
106.001	1	1	0	1	0.49	1	1	1_0.gif
107.001	1	4	0	4	0.342	4	1	4_0.gif
108.001	1	3	0	3	0.396	3	1	3_0.gif
109.001	1	4	0	4	0.352	4	1	4_0.gif
110.001	1	1	0	1	0.439	1	1	1_0.gif
111.001	1	3	0	3	0.504	3	1	3_0.gif
112.002	1	2	2	6	0	1	n/a	2_2.gif
113.002	1	3	2	6	0	3	n/a	3_2.gif
114.002	1	4	2	6	0	2	n/a	4_2.gif
115.002	1	1	2	2	0.172	3	0	1_2.gif
116.002	1	3	2	3	0.003	4	0	3_2.gif
117.002	1	4	2	1	0.279	1	1	4_2.gif
118.002	1	1	2	3	0.238	3	1	1_2.gif
119.002	1	4	2	4	0.246	4	1	4_2.gif
120.002	1	2	2	1	0.278	1	1	2_2.gif
121.002	1	3	2	4	0.299	4	1	3_2.gif
122.002	1	4	2	2	0.255	2	1	4_2.gif
123.002	1	1	2	3	0.241	3	1	1_2.gif
124.002	1	3	2	4	0.28	4	1	3_2.gif
125.002	1	4	2	1	0.171	1	1	4_2.gif
126.002	1	3	2	3	0.191	3	1	3_2.gif
127.002	1	4	2	4	0.212	4	1	4_2.gif
128.002	1	3	0	3	0.284	3	1	3_0.gif
129.002	1	2	0	4	0.496	2	0	2_0.gif
130.002	1	4	0	4	0.797	4	1	4_0.gif
131.002	1	3	0	4	0.003	3	0	3_0.gif
132.002	1	1	0	1	0.897	1	1	1_0.gif
133.002	1	3	0	1	0.003	3	0	3_0.gif
134.002	1	2	0	2	0.563	2	1	2_0.gif
135.002	1	1	0	1	0.41	1	1	1_0.gif
136.002	1	4	0	4	0.607	4	1	4_0.gif
137.002	1	3	0	3	0.314	3	1	3_0.gif
138.002	1	1	0	1	0.458	1	1	1_0.gif
139.002	1	4	0	2	0.927	4	0	4_0.gif
140.002	1	3	0	2	0.003	3	0	3_0.gif
141.002	1	4	0	3	0.003	4	0	4_0.gif
142.002	1	1	0	1	0.514	1	1	1_0.gif
143.002	1	4	0	4	0.414	4	1	4_0.gif
144.002	1	2	2	2	0.769	1	0	2_2.gif
145.002	1	3	2	6	0	4	n/a	3_2.gif
146.002	1	1	2	2	0.437	2	1	1_2.gif
147.002	1	2	2	3	0.241	3	1	2_2.gif
148.002	1	3	2	1	0.141	1	1	3_2.gif
149.002	1	1	2	2	0.003	2	1	1_2.gif
150.002	1	2	2	3	0.089	3	1	2_2.gif
151.002	1	1	2	1	0.003	1	1	1_2.gif
152.002	1	2	2	2	0.06	2	1	2_2.gif
153.002	1	4	2	1	0.587	1	1	4_2.gif
154.002	1	1	2	4	0.332	2	0	1_2.gif
155.002	1	4	2	6	0	4	n/a	4_2.gif
156.002	1	3	2	6	0	1	n/a	3_2.gif
157.002	1	1	2	1	0.301	4	0	1_2.gif
158.002	1	4	2	6	0	3	n/a	4_2.gif
159.002	1	2	2	3	0.219	1	0	2_2.gif
160.002	1	1	0	6	0	1	n/a	1_0.gif
161.002	1	2	0	1	0.013	2	0	2_0.gif
162.002	1	1	0	2	0.004	1	0	1_0.gif
163.002	1	3	0	3	0.575	3	1	3_0.gif
164.002	1	4	0	4	0.371	4	1	4_0.gif
165.002	1	2	0	2	0.377	2	1	2_0.gif
166.002	1	4	0	4	0.697	4	1	4_0.gif
167.002	1	1	0	1	0.48	1	1	1_0.gif
168.002	1	4	0	4	0.563	4	1	4_0.gif
169.002	1	1	0	1	0.394	1	1	1_0.gif
170.002	1	2	0	2	0.641	2	1	2_0.gif
171.002	1	4	0	4	0.414	4	1	4_0.gif
172.002	1	3	0	3	0.331	3	1	3_0.gif
173.002	1	1	0	1	0.321	1	1	1_0.gif
174.002	1	2	0	6	0	2	n/a	2_0.gif
175.002	1	4	0	4	0.389	4	1	4_0.gif
176.003	1	3	2	3	0.658	2	0	3_2.gif
177.003	1	4	2	6	0	4	n/a	4_2.gif
178.003	1	2	2	3	0.443	3	1	2_2.gif
179.003	1	4	2	4	0.403	4	1	4_2.gif
180.003	1	3	2	2	0.525	2	1	3_2.gif
181.003	1	1	2	4	0.538	4	1	1_2.gif
182.003	1	2	2	3	0.621	3	1	2_2.gif
183.003	1	4	2	1	0.593	1	1	4_2.gif
184.003	1	2	2	2	0.463	2	1	2_2.gif
185.003	1	1	2	4	0.366	4	1	1_2.gif
186.003	1	3	2	2	0.569	2	1	3_2.gif
187.003	1	2	2	1	0.601	1	1	2_2.gif
188.003	1	1	2	3	0.535	3	1	1_2.gif
189.003	1	4	2	2	0.665	2	1	4_2.gif
190.003	1	2	2	2	0.003	1	0	2_2.gif
191.003	1	1	2	4	0.581	4	1	1_2.gif
192.003	1	4	0	4	0.674	4	1	4_0.gif
193.003	1	2	0	2	0.499	2	1	2_0.gif
194.003	1	1	0	1	0.268	1	1	1_0.gif
195.003	1	2	0	2	0.641	2	1	2_0.gif
196.003	1	3	0	3	0.628	3	1	3_0.gif
197.003	1	1	0	1	0.425	1	1	1_0.gif
198.003	1	3	0	3	0.504	3	1	3_0.gif
199.003	1	4	0	4	0.596	4	1	4_0.gif
200.003	1	1	0	1	0.299	1	1	1_0.gif
201.003	1	4	0	4	0.486	4	1	4_0.gif
202.003	1	1	0	1	0.365	1	1	1_0.gif
203.003	1	4	0	4	0.343	4	1	4_0.gif
204.003	1	3	0	3	0.482	3	1	3_0.gif
205.003	1	1	0	1	0.294	1	1	1_0.gif
206.003	1	4	0	4	0.331	4	1	4_0.gif
207.003	1	2	0	2	0.584	2	1	2_0.gif
208.003	1	3	2	6	0	4	n/a	3_2.gif
209.003	1	1	2	6	0	2	n/a	1_2.gif
210.003	1	3	2	3	0.608	3	1	3_2.gif
211.003	1	1	2	1	0.574	1	1	1_2.gif
212.003	1	4	2	3	0.629	3	1	4_2.gif
213.003	1	1	2	1	0.601	1	1	1_2.gif
214.003	1	3	2	4	0.573	4	1	3_2.gif
215.003	1	4	2	1	0.457	1	1	4_2.gif
216.003	1	1	2	3	0.535	3	1	1_2.gif
217.003	1	4	2	4	0.607	4	1	4_2.gif
218.003	1	3	2	1	0.596	1	1	3_2.gif
219.003	1	4	2	4	0.542	4	1	4_2.gif
220.003	1	1	2	3	0.419	3	1	1_2.gif
221.003	1	3	2	4	0.465	4	1	3_2.gif
222.003	1	4	2	1	0.377	1	1	4_2.gif
223.003	1	2	2	3	0.388	3	1	2_2.gif
224.003	1	1	0	2	0.542	1	0	1_0.gif
225.003	1	2	0	1	0.003	2	0	2_0.gif
226.003	1	1	0	1	0.478	1	1	1_0.gif
227.003	1	2	0	2	0.44	2	1	2_0.gif
228.003	1	1	0	1	0.299	1	1	1_0.gif
229.003	1	3	0	3	0.506	3	1	3_0.gif
230.003	1	4	0	4	0.497	4	1	4_0.gif
231.003	1	1	0	1	0.322	1	1	1_0.gif
232.003	1	2	0	2	0.519	2	1	2_0.gif
233.003	1	4	0	4	0.322	4	1	4_0.gif
234.003	1	3	0	3	0.311	3	1	3_0.gif
235.003	1	4	0	4	0.505	4	1	4_0.gif
236.003	1	2	0	2	0.586	2	1	2_0.gif
237.003	1	3	0	3	0.737	3	1	3_0.gif
238.003	1	1	0	1	0.396	1	1	1_0.gif
239.003	1	2	0	2	0.452	2	1	2_0.gif
240.004	1	3	2	6	0	1	n/a	3_2.gif
241.004	1	4	2	6	0	2	n/a	4_2.gif
242.004	1	1	2	3	0.394	3	1	1_2.gif
243.004	1	2	2	4	0.333	4	1	2_2.gif
244.004	1	1	2	1	0.199	1	1	1_2.gif
245.004	1	4	2	2	0.209	2	1	4_2.gif
246.004	1	2	2	1	0.169	1	1	2_2.gif
247.004	1	4	2	4	0.209	4	1	4_2.gif
248.004	1	3	2	2	0.224	2	1	3_2.gif
249.004	1	1	2	4	0.205	4	1	1_2.gif
250.004	1	2	2	3	0.106	3	1	2_2.gif
251.004	1	1	2	1	0.101	1	1	1_2.gif
252.004	1	3	2	2	0.101	2	1	3_2.gif
253.004	1	1	2	1	0.129	1	1	1_2.gif
254.004	1	2	2	3	0.094	3	1	2_2.gif
255.004	1	4	2	1	0.291	1	1	4_2.gif
