onset	duration	nback_display	trial_type	response	response_time	correct_response	correct	stim_file
0	1	4	0	4	0.936	4	1	4_0.gif
1	1	3	0	4	0.004	3	0	3_0.gif
2	1	1	0	1	0.556	1	1	1_0.gif
3	1	3	0	3	0.486	3	1	3_0.gif
4	1	2	0	2	0.388	2	1	2_0.gif
5	1	3	0	3	0.531	3	1	3_0.gif
6	1	1	0	1	0.514	1	1	1_0.gif
7.001	1	2	0	2	0.468	2	1	2_0.gif
8.001	1	3	0	3	0.542	3	1	3_0.gif
9.001	1	2	0	2	0.406	2	1	2_0.gif
10.001	1	3	0	3	0.45	3	1	3_0.gif
11.001	1	2	0	2	0.362	2	1	2_0.gif
12.001	1	4	0	4	0.573	4	1	4_0.gif
13.001	1	3	0	3	0.435	3	1	3_0.gif
14.001	1	1	0	1	0.496	1	1	1_0.gif
15.001	1	4	0	4	0.549	4	1	4_0.gif
16.001	1	2	2	6	0	1	n/a	2_2.gif
17.001	1	1	2	6	0	4	n/a	1_2.gif
18.001	1	2	2	2	0.569	2	1	2_2.gif
19.001	1	1	2	1	0.59	1	1	1_2.gif
20.001	1	2	2	2	0.506	2	1	2_2.gif
21.001	1	1	2	1	0.622	1	1	1_2.gif
22.001	1	3	2	2	0.606	2	1	3_2.gif
23.001	1	2	2	1	0.575	1	1	2_2.gif
24.001	1	3	2	3	0.246	3	1	3_2.gif
25.001	1	2	2	2	0.139	2	1	2_2.gif
26.001	1	1	2	3	0.157	3	1	1_2.gif
27.001	1	2	2	2	0.136	2	1	2_2.gif
28.001	1	3	2	1	0.232	1	1	3_2.gif
29.001	1	1	2	2	0.216	2	1	1_2.gif
30.001	1	2	2	3	0.302	3	1	2_2.gif
31.001	1	4	2	1	0.364	1	1	4_2.gif
32.001	1	2	0	2	0.367	2	1	2_0.gif
33.001	1	4	0	2	0.433	4	0	4_0.gif
34.001	1	1	0	4	0.036	1	0	1_0.gif
35.001	1	3	0	3	0.531	3	1	3_0.gif
36.001	1	4	0	4	0.502	4	1	4_0.gif
37.001	1	2	0	2	0.323	2	1	2_0.gif
38.001	1	3	0	3	0.466	3	1	3_0.gif
39.001	1	2	0	2	0.381	2	1	2_0.gif
40.001	1	4	0	4	0.416	4	1	4_0.gif
41.001	1	1	0	1	0.445	1	1	1_0.gif
42.001	1	2	0	2	0.39	2	1	2_0.gif
43.001	1	3	0	3	0.457	3	1	3_0.gif
44.001	1	2	0	2	0.435	2	1	2_0.gif
45.001	1	1	0	1	0.412	1	1	1_0.gif
46.001	1	4	0	4	0.789	4	1	4_0.gif
47.001	1	3	0	3	0.527	3	1	3_0.gif
48.001	1	4	2	6	0	4	n/a	4_2.gif
49.001	1	2	2	6	0	3	n/a	2_2.gif
50.001	1	3	2	4	0.66	4	1	3_2.gif
51.001	1	1	2	2	0.352	2	1	1_2.gif
52.001	1	4	2	3	0.37	3	1	4_2.gif
53.001	1	2	2	1	0.691	1	1	2_2.gif
54.001	1	1	2	4	0.579	4	1	1_2.gif
55.001	1	2	2	2	0.365	2	1	2_2.gif
56.001	1	1	2	1	0.35	1	1	1_2.gif
57.001	1	3	2	2	0.335	2	1	3_2.gif
58.001	1	4	2	1	0.45	1	1	4_2.gif
59.001	1	3	2	3	0.288	3	1	3_2.gif
60.001	1	4	2	4	0.224	4	1	4_2.gif
61.001	1	2	2	3	0.263	3	1	2_2.gif
62.001	1	4	2	4	0.355	4	1	4_2.gif
63.001	1	1	2	2	0.274	2	1	1_2.gif
64.001	1	2	0	4	0.349	2	0	2_0.gif
65.001	1	3	0	2	0.008	3	0	3_0.gif
66.001	1	1	0	3	0.004	1	0	1_0.gif
67.001	1	2	0	1	0.006	2	0	2_0.gif
68.001	1	1	0	1	0.695	1	1	1_0.gif
69.001	1	2	0	2	0.582	2	1	2_0.gif
70.001	1	4	0	4	0.44	4	1	4_0.gif
71.001	1	1	0	1	0.464	1	1	1_0.gif
72.001	1	3	0	3	0.507	3	1	3_0.gif
73.001	1	2	0	2	0.435	2	1	2_0.gif
74.001	1	4	0	4	0.537	4	1	4_0.gif
75.001	1	2	0	2	0.451	2	1	2_0.gif
76.001	1	3	0	3	0.385	3	1	3_0.gif
77.001	1	2	0	2	0.296	2	1	2_0.gif
78.001	1	1	0	1	0.58	1	1	1_0.gif
79.001	1	2	0	2	0.397	2	1	2_0.gif
80.002	1	3	2	6	0	1	n/a	3_2.gif
81.002	1	2	2	6	0	2	n/a	2_2.gif
82.002	1	4	2	3	0.4	3	1	4_2.gif
83.002	1	2	2	2	0.308	2	1	2_2.gif
84.002	1	4	2	4	0.334	4	1	4_2.gif
85.002	1	2	2	2	0.304	2	1	2_2.gif
86.002	1	1	2	4	0.354	4	1	1_2.gif
87.002	1	2	2	2	0.294	2	1	2_2.gif
88.002	1	1	2	1	0.282	1	1	1_2.gif
89.002	1	3	2	2	0.267	2	1	3_2.gif
90.002	1	4	2	1	0.229	1	1	4_2.gif
91.002	1	3	2	3	0.241	3	1	3_2.gif
92.002	1	1	2	4	0.271	4	1	1_2.gif
93.002	1	4	2	3	0.237	3	1	4_2.gif
94.002	1	1	2	1	0.422	1	1	1_2.gif
95.002	1	2	2	4	0.36	4	1	2_2.gif
96.002	1	3	0	6	0	3	n/a	3_0.gif
97.002	1	4	0	3	0.141	4	0	4_0.gif
98.002	1	1	0	4	0.003	1	0	1_0.gif
99.002	1	3	0	3	0.574	3	1	3_0.gif
100.002	1	1	0	1	0.559	1	1	1_0.gif
101.002	1	3	0	3	0.529	3	1	3_0.gif
102.002	1	2	0	2	0.559	2	1	2_0.gif
103.002	1	3	0	3	0.476	3	1	3_0.gif
104.002	1	1	0	1	0.448	1	1	1_0.gif
105.002	1	3	0	3	0.434	3	1	3_0.gif
106.002	1	1	0	1	0.445	1	1	1_0.gif
107.002	1	2	0	2	0.404	2	1	2_0.gif
108.002	1	1	0	1	0.446	1	1	1_0.gif
109.002	1	3	0	3	0.609	3	1	3_0.gif
110.002	1	1	0	1	0.599	1	1	1_0.gif
111.002	1	3	0	3	0.53	3	1	3_0.gif
112.002	1	2	2	6	0	1	n/a	2_2.gif
113.002	1	3	2	6	0	3	n/a	3_2.gif
114.002	1	1	2	2	0.407	2	1	1_2.gif
115.002	1	4	2	3	0.477	3	1	4_2.gif
116.002	1	1	2	1	0.466	1	1	1_2.gif
117.002	1	2	2	4	0.427	4	1	2_2.gif
118.002	1	3	2	1	0.402	1	1	3_2.gif
119.002	1	1	2	2	0.41	2	1	1_2.gif
120.002	1	2	2	3	0.36	3	1	2_2.gif
121.002	1	3	2	1	0.406	1	1	3_2.gif
122.002	1	2	2	2	0.404	2	1	2_2.gif
123.002	1	3	2	3	0.471	3	1	3_2.gif
124.002	1	4	2	2	0.3	2	1	4_2.gif
125.002	1	2	2	3	0.273	3	1	2_2.gif
126.002	1	3	2	4	0.297	4	1	3_2.gif
127.002	1	2	2	2	0.318	2	1	2_2.gif
128.002	1	1	0	3	0.373	1	0	1_0.gif
129.002	1	4	0	1	0.109	4	0	4_0.gif
130.002	1	1	0	4	0.005	1	0	1_0.gif
131.002	1	3	0	3	0.555	3	1	3_0.gif
132.002	1	2	0	2	0.422	2	1	2_0.gif
133.002	1	4	0	4	0.34	4	1	4_0.gif
134.002	1	3	0	3	0.454	3	1	3_0.gif
135.002	1	1	0	1	0.52	1	1	1_0.gif
136.002	1	4	0	4	0.525	4	1	4_0.gif
137.002	1	3	0	3	0.47	3	1	3_0.gif
138.002	1	1	0	1	0.444	1	1	1_0.gif
139.002	1	3	0	3	0.531	3	1	3_0.gif
140.002	1	2	0	2	0.46	2	1	2_0.gif
141.002	1	1	0	1	0.448	1	1	1_0.gif
142.002	1	3	0	3	0.592	3	1	3_0.gif
143.002	1	2	0	2	0.381	2	1	2_0.gif
144.003	1	3	2	6	0	3	n/a	3_2.gif
145.003	1	1	2	6	0	2	n/a	1_2.gif
146.003	1	3	2	3	0.475	3	1	3_2.gif
147.003	1	4	2	1	0.363	1	1	4_2.gif
148.003	1	1	2	3	0.339	3	1	1_2.gif
149.003	1	3	2	4	0.241	4	1	3_2.gif
150.003	1	4	2	1	0.254	1	1	4_2.gif
151.003	1	3	2	3	0.592	3	1	3_2.gif
152.003	1	1	2	4	0.55	4	1	1_2.gif
153.003	1	2	2	2	0.485	3	0	2_2.gif
154.003	1	3	2	6	0	1	n/a	3_2.gif
155.003	1	2	2	6	0	2	n/a	2_2.gif
156.003	1	1	2	3	0.004	3	1	1_2.gif
157.003	1	3	2	1	0.003	2	0	3_2.gif
158.003	1	4	2	6	0	1	n/a	4_2.gif
159.003	1	3	2	3	0.772	3	1	3_2.gif
160.003	1	4	0	6	0	4	n/a	4_0.gif
161.003	1	2	0	4	0.011	2	0	2_0.gif
162.003	1	1	0	2	0.003	1	0	1_0.gif
163.003	1	2	0	1	0.003	2	0	2_0.gif
164.003	1	3	0	3	0.8	3	1	3_0.gif
165.003	1	4	0	4	0.783	4	1	4_0.gif
166.003	1	1	0	1	0.717	1	1	1_0.gif
167.003	1	3	0	3	0.607	3	1	3_0.gif
168.003	1	1	0	1	0.627	1	1	1_0.gif
169.003	1	3	0	3	0.533	3	1	3_0.gif
170.003	1	1	0	1	0.489	1	1	1_0.gif
171.003	1	3	0	3	0.527	3	1	3_0.gif
172.003	1	4	0	4	0.577	4	1	4_0.gif
173.003	1	1	0	1	0.568	1	1	1_0.gif
174.003	1	2	0	2	0.41	2	1	2_0.gif
175.003	1	1	0	1	0.559	1	1	1_0.gif
176.003	1	3	2	6	0	2	n/a	3_2.gif
177.003	1	2	2	6	0	1	n/a	2_2.gif
178.003	1	3	2	3	0.308	3	1	3_2.gif
179.003	1	2	2	2	0.307	2	1	2_2.gif
180.003	1	4	2	3	0.406	3	1	4_2.gif
181.003	1	1	2	2	0.337	2	1	1_2.gif
182.003	1	2	2	4	0.199	4	1	2_2.gif
183.003	1	3	2	1	0.24	1	1	3_2.gif
184.003	1	4	2	2	0.247	2	1	4_2.gif
185.003	1	1	2	3	0.311	3	1	1_2.gif
186.003	1	2	2	4	0.289	4	1	2_2.gif
187.003	1	3	2	1	0.331	1	1	3_2.gif
188.003	1	1	2	2	0.239	2	1	1_2.gif
189.003	1	3	2	3	0.174	3	1	3_2.gif
190.003	1	2	2	1	0.215	1	1	2_2.gif
191.003	1	3	2	3	0.18	3	1	3_2.gif
192.003	1	1	0	2	0.199	1	0	1_0.gif
193.003	1	2	0	3	0.065	2	0	2_0.gif
194.003	1	3	0	2	0.006	3	0	3_0.gif
195.003	1	2	0	2	0.456	2	1	2_0.gif
196.003	1	3	0	3	0.407	3	1	3_0.gif
197.003	1	2	0	2	0.538	2	1	2_0.gif
198.003	1	4	0	4	0.503	4	1	4_0.gif
199.003	1	3	0	3	0.519	3	1	3_0.gif
200.003	1	1	0	1	0.488	1	1	1_0.gif
201.003	1	4	0	4	0.598	4	1	4_0.gif
202.003	1	2	0	2	0.427	2	1	2_0.gif
203.003	1	1	0	1	0.364	1	1	1_0.gif
204.003	1	2	0	2	0.404	2	1	2_0.gif
205.003	1	1	0	1	0.638	1	1	1_0.gif
206.003	1	2	0	2	0.549	2	1	2_0.gif
207.003	1	1	0	1	0.603	1	1	1_0.gif
208.004	1	3	2	6	0	2	n/a	3_2.gif
209.004	1	2	2	6	0	1	n/a	2_2.gif
210.004	1	3	2	3	0.428	3	1	3_2.gif
211.004	1	2	2	2	0.318	2	1	2_2.gif
212.004	1	1	2	3	0.414	3	1	1_2.gif
213.004	1	2	2	2	0.347	2	1	2_2.gif
214.004	1	3	2	1	0.486	1	1	3_2.gif
215.004	1	1	2	2	0.351	2	1	1_2.gif
216.004	1	2	2	3	0.333	3	1	2_2.gif
217.004	1	4	2	1	0.307	1	1	4_2.gif
218.004	1	2	2	2	0.259	2	1	2_2.gif
219.004	1	4	2	4	0.205	4	1	4_2.gif
220.004	1	1	2	2	0.264	2	1	1_2.gif
221.004	1	3	2	1	0.247	4	0	3_2.gif
222.004	1	4	2	3	0.713	1	0	4_2.gif
223.004	1	2	2	6	0	3	n/a	2_2.gif
224.004	1	3	0	6	0	3	n/a	3_0.gif
225.004	1	2	0	3	0.453	2	0	2_0.gif
226.004	1	4	0	2	0.003	4	0	4_0.gif
227.004	1	1	0	1	0.466	1	1	1_0.gif
228.004	1	2	0	2	0.408	2	1	2_0.gif
229.004	1	3	0	3	0.303	3	1	3_0.gif
230.004	1	2	0	2	0.403	2	1	2_0.gif
231.004	1	1	0	1	0.531	1	1	1_0.gif
232.004	1	4	0	4	0.351	4	1	4_0.gif
233.004	1	3	0	3	0.448	3	1	3_0.gif
234.004	1	4	0	4	0.531	4	1	4_0.gif
235.004	1	2	0	2	0.339	2	1	2_0.gif
236.004	1	3	0	3	0.408	3	1	3_0.gif
237.004	1	1	0	1	0.611	1	1	1_0.gif
238.004	1	4	0	4	0.572	4	1	4_0.gif
239.004	1	2	0	2	0.441	2	1	2_0.gif
240.004	1	1	2	6	0	4	n/a	1_2.gif
241.004	1	2	2	6	0	2	n/a	2_2.gif
242.004	1	1	2	1	0.578	1	1	1_2.gif
243.004	1	3	2	2	0.371	2	1	3_2.gif
244.004	1	4	2	1	0.294	1	1	4_2.gif
245.004	1	3	2	3	0.188	3	1	3_2.gif
246.004	1	4	2	4	0.255	4	1	4_2.gif
247.004	1	2	2	3	0.284	3	1	2_2.gif
248.004	1	4	2	4	0.2	4	1	4_2.gif
249.004	1	1	2	2	0.196	2	1	1_2.gif
250.004	1	2	2	4	0.355	4	1	2_2.gif
251.004	1	3	2	1	0.417	1	1	3_2.gif
252.004	1	1	2	2	0.347	2	1	1_2.gif
253.004	1	2	2	3	0.277	3	1	2_2.gif
254.004	1	1	2	1	0.256	1	1	1_2.gif
255.004	1	2	2	2	0.326	2	1	2_2.gif
