onset	duration	nback_display	trial_type	response	response_time	correct_response	correct	stim_file
0	1	4	0	6	0	4	n/a	4_0.gif
1	1	3	0	3	0.747	3	1	3_0.gif
2	1	2	0	2	0.785	2	1	2_0.gif
3	1	4	0	2	0.007	4	0	4_0.gif
4	1	3	0	3	0.487	3	1	3_0.gif
5	1	1	0	1	0.448	1	1	1_0.gif
6	1	3	0	3	0.506	3	1	3_0.gif
7	1	2	0	2	0.409	2	1	2_0.gif
8	1	1	0	1	0.514	1	1	1_0.gif
9	1	3	0	3	0.518	3	1	3_0.gif
10	1	1	0	1	0.455	1	1	1_0.gif
11	1	2	0	2	0.358	2	1	2_0.gif
12	1	3	0	3	0.487	3	1	3_0.gif
13	1	1	0	1	0.436	1	1	1_0.gif
14	1	3	0	3	0.414	3	1	3_0.gif
15	1	2	0	2	0.43	2	1	2_0.gif
16	1	1	2	6	0	3	n/a	1_2.gif
17	1	3	2	6	0	2	n/a	3_2.gif
18	1	2	2	1	0.268	1	1	2_2.gif
19	1	4	2	3	0.233	3	1	4_2.gif
20	1	1	2	2	0.775	2	1	1_2.gif
21	1	3	2	2	0.007	4	0	3_2.gif
22	1	1	2	1	0.006	1	1	1_2.gif
23	1	4	2	6	0	3	n/a	4_2.gif
24	1	2	2	1	0.202	1	1	2_2.gif
25	1	3	2	4	0.197	4	1	3_2.gif
26	1	1	2	2	0.257	2	1	1_2.gif
27	1	3	2	3	0.293	3	1	3_2.gif
28	1	2	2	1	0.355	1	1	2_2.gif
29	1	4	2	3	0.296	3	1	4_2.gif
30	1	2	2	2	0.238	2	1	2_2.gif
31	1	3	2	4	0.267	4	1	3_2.gif
32	1	1	0	2	0.339	1	0	1_0.gif
33	1	2	0	1	0.031	2	0	2_0.gif
34	1	1	0	1	0.489	1	1	1_0.gif
35	1	3	0	3	0.532	3	1	3_0.gif
36	1	4	0	4	0.525	4	1	4_0.gif
37	1	1	0	1	0.448	1	1	1_0.gif
38	1	3	0	3	0.53	3	1	3_0.gif
39	1	1	0	1	0.431	1	1	1_0.gif
40	1	2	0	2	0.402	2	1	2_0.gif
41	1	3	0	3	0.442	3	1	3_0.gif
42	1	2	0	2	0.47	2	1	2_0.gif
43	1	4	0	4	0.38	4	1	4_0.gif
44	1	1	0	1	0.452	1	1	1_0.gif
45	1	4	0	4	0.54	4	1	4_0.gif
46	1	1	0	1	0.406	1	1	1_0.gif
47	1	3	0	3	0.541	3	1	3_0.gif
48	1	2	2	2	0.502	1	0	2_2.gif
49	1	1	2	6	0	3	n/a	1_2.gif
50	1	3	2	2	0.388	2	1	3_2.gif
51	1	4	2	1	0.442	1	1	4_2.gif
52	1	1	2	3	0.526	3	1	1_2.gif
53	1	3	2	4	0.432	4	1	3_2.gif
54	1	4	2	1	0.371	1	1	4_2.gif
55	1	1	2	3	0.336	3	1	1_2.gif
56	1	2	2	4	0.267	4	1	2_2.gif
57	1	3	2	1	0.326	1	1	3_2.gif
58	1	4	2	2	0.4	2	1	4_2.gif
59	1	3	2	3	0.371	3	1	3_2.gif
60	1	2	2	4	0.466	4	1	2_2.gif
61	1	4	2	3	0.426	3	1	4_2.gif
62	1	2	2	2	0.413	2	1	2_2.gif
63	1	3	2	4	0.381	4	1	3_2.gif
64	1	4	0	4	0.857	4	1	4_0.gif
65	1	3	0	4	0.007	3	0	3_0.gif
66	1	2	0	3	0.007	2	0	2_0.gif
67	1	3	0	3	0.508	3	1	3_0.gif
68	1	4	0	4	0.53	4	1	4_0.gif
69	1	2	0	2	0.356	2	1	2_0.gif
70	1	3	0	3	0.474	3	1	3_0.gif
71	1	4	0	4	0.408	4	1	4_0.gif
72	1	2	0	2	0.374	2	1	2_0.gif
73	1	4	0	4	0.366	4	1	4_0.gif
74	1	3	0	3	0.439	3	1	3_0.gif
75	1	2	0	2	0.653	2	1	2_0.gif
76	1	1	0	1	0.554	1	1	1_0.gif
77	1	2	0	2	0.481	2	1	2_0.gif
78	1	4	0	4	0.498	4	1	4_0.gif
79	1	3	0	3	0.506	3	1	3_0.gif
80.001	1	2	2	6	0	4	n/a	2_2.gif
81.001	1	3	2	6	0	3	n/a	3_2.gif
82.001	1	2	2	2	0.433	2	1	2_2.gif
83.001	1	1	2	3	0.311	3	1	1_2.gif
84.001	1	2	2	2	0.27	2	1	2_2.gif
85.001	1	1	2	1	0.301	1	1	1_2.gif
86.001	1	4	2	2	0.242	2	1	4_2.gif
87.001	1	2	2	1	0.54	1	1	2_2.gif
88.001	1	3	2	4	0.453	4	1	3_2.gif
89.001	1	4	2	2	0.393	2	1	4_2.gif
90.001	1	3	2	3	0.388	3	1	3_2.gif
91.001	1	4	2	4	0.378	4	1	4_2.gif
92.001	1	2	2	3	0.352	3	1	2_2.gif
93.001	1	1	2	4	0.349	4	1	1_2.gif
94.001	1	2	2	2	0.352	2	1	2_2.gif
95.001	1	4	2	1	0.356	1	1	4_2.gif
96.001	1	3	0	2	0.371	3	0	3_0.gif
97.001	1	2	0	2	0.565	2	1	2_0.gif
98.001	1	1	0	1	0.533	1	1	1_0.gif
99.001	1	2	0	2	0.512	2	1	2_0.gif
100.001	1	3	0	3	0.505	3	1	3_0.gif
101.001	1	1	0	1	0.699	1	1	1_0.gif
102.001	1	2	0	2	0.709	2	1	2_0.gif
103.001	1	4	0	2	0.007	4	0	4_0.gif
104.001	1	2	0	2	0.563	2	1	2_0.gif
105.001	1	3	0	3	0.428	3	1	3_0.gif
106.001	1	2	0	2	0.385	2	1	2_0.gif
107.001	1	1	0	1	0.49	1	1	1_0.gif
108.001	1	3	0	3	0.457	3	1	3_0.gif
109.001	1	1	0	1	0.453	1	1	1_0.gif
110.001	1	3	0	3	0.446	3	1	3_0.gif
111.001	1	2	0	2	0.377	2	1	2_0.gif
112.001	1	1	2	6	0	3	n/a	1_2.gif
113.001	1	3	2	6	0	2	n/a	3_2.gif
114.001	1	2	2	1	0.247	1	1	2_2.gif
115.001	1	1	2	3	0.169	3	1	1_2.gif
116.001	1	3	2	2	0.21	2	1	3_2.gif
117.001	1	4	2	1	0.248	1	1	4_2.gif
118.001	1	2	2	3	0.254	3	1	2_2.gif
119.001	1	4	2	2	0.351	4	0	4_2.gif
120.001	1	3	2	4	0.335	2	0	3_2.gif
121.001	1	1	2	3	0.323	4	0	1_2.gif
122.001	1	3	2	1	0.337	3	0	3_2.gif
123.001	1	2	2	6	0	1	n/a	2_2.gif
124.001	1	4	2	1	0.154	3	0	4_2.gif
125.001	1	2	2	3	0.089	2	0	2_2.gif
126.001	1	3	2	2	0.18	4	0	3_2.gif
127.001	1	2	2	3	0.367	2	0	2_2.gif
128.001	1	1	0	1	0.665	1	1	1_0.gif
129.001	1	2	0	2	0.493	2	1	2_0.gif
130.002	1	1	0	1	0.569	1	1	1_0.gif
131.002	1	2	0	2	0.354	2	1	2_0.gif
132.002	1	3	0	3	0.516	3	1	3_0.gif
133.002	1	1	0	1	0.429	1	1	1_0.gif
134.002	1	4	0	4	0.542	4	1	4_0.gif
135.002	1	1	0	1	0.369	1	1	1_0.gif
136.002	1	2	0	2	0.333	2	1	2_0.gif
137.002	1	1	0	1	0.473	1	1	1_0.gif
138.002	1	3	0	3	0.471	3	1	3_0.gif
139.002	1	1	0	1	0.433	1	1	1_0.gif
140.002	1	4	0	4	0.454	4	1	4_0.gif
141.002	1	3	0	3	0.42	3	1	3_0.gif
142.002	1	2	0	2	0.364	2	1	2_0.gif
143.002	1	1	0	1	0.355	1	1	1_0.gif
144.002	1	3	2	6	0	2	n/a	3_2.gif
145.002	1	2	2	6	0	1	n/a	2_2.gif
146.002	1	1	2	3	0.261	3	1	1_2.gif
147.002	1	2	2	2	0.235	2	1	2_2.gif
148.002	1	3	2	1	0.215	1	1	3_2.gif
149.002	1	2	2	2	0.251	2	1	2_2.gif
150.002	1	4	2	3	0.193	3	1	4_2.gif
151.002	1	1	2	2	0.242	2	1	1_2.gif
152.002	1	3	2	4	0.283	4	1	3_2.gif
153.002	1	4	2	1	0.25	1	1	4_2.gif
154.002	1	1	2	3	0.317	3	1	1_2.gif
155.002	1	3	2	4	0.345	4	1	3_2.gif
156.002	1	4	2	1	0.281	1	1	4_2.gif
157.002	1	3	2	3	0.474	3	1	3_2.gif
158.002	1	4	2	4	0.391	4	1	4_2.gif
159.002	1	2	2	3	0.415	3	1	2_2.gif
160.002	1	3	0	3	0.795	3	1	3_0.gif
161.002	1	2	0	3	0.007	2	0	2_0.gif
162.002	1	4	0	4	0.48	4	1	4_0.gif
163.002	1	2	0	2	0.415	2	1	2_0.gif
164.002	1	4	0	4	0.436	4	1	4_0.gif
165.002	1	3	0	3	0.457	3	1	3_0.gif
166.002	1	4	0	4	0.449	4	1	4_0.gif
167.002	1	3	0	3	0.426	3	1	3_0.gif
168.002	1	1	0	1	0.457	1	1	1_0.gif
169.002	1	2	0	2	0.352	2	1	2_0.gif
170.002	1	4	0	4	0.391	4	1	4_0.gif
171.002	1	2	0	2	0.397	2	1	2_0.gif
172.002	1	4	0	4	0.497	4	1	4_0.gif
173.002	1	3	0	3	0.419	3	1	3_0.gif
174.002	1	4	0	4	0.449	4	1	4_0.gif
175.002	1	3	0	3	0.395	3	1	3_0.gif
176.002	1	4	2	6	0	4	n/a	4_2.gif
177.002	1	2	2	6	0	3	n/a	2_2.gif
178.002	1	1	2	4	0.187	4	1	1_2.gif
179.002	1	3	2	2	0.297	2	1	3_2.gif
180.002	1	4	2	1	0.233	1	1	4_2.gif
181.002	1	3	2	3	0.241	3	1	3_2.gif
182.002	1	4	2	4	0.156	4	1	4_2.gif
183.002	1	1	2	3	0.049	3	1	1_2.gif
184.002	1	2	2	4	0.012	4	1	2_2.gif
185.002	1	4	2	1	0.123	1	1	4_2.gif
186.002	1	2	2	2	0.084	2	1	2_2.gif
187.002	1	1	2	6	0	4	n/a	1_2.gif
188.002	1	2	2	2	0.34	2	1	2_2.gif
189.002	1	3	2	1	0.259	1	1	3_2.gif
190.002	1	2	2	2	0.198	2	1	2_2.gif
191.002	1	4	2	3	0.219	3	1	4_2.gif
192.002	1	2	0	2	0.269	2	1	2_0.gif
193.002	1	1	0	1	0.465	1	1	1_0.gif
194.002	1	4	0	4	0.511	4	1	4_0.gif
195.002	1	3	0	3	0.419	3	1	3_0.gif
196.002	1	2	0	2	0.405	2	1	2_0.gif
197.002	1	4	0	4	0.471	4	1	4_0.gif
198.002	1	3	0	3	0.399	3	1	3_0.gif
199.002	1	1	0	1	0.515	1	1	1_0.gif
200.002	1	3	0	3	0.443	3	1	3_0.gif
201.002	1	2	0	2	0.391	2	1	2_0.gif
202.002	1	1	0	1	0.629	1	1	1_0.gif
203.002	1	3	0	3	0.446	3	1	3_0.gif
204.002	1	1	0	1	0.508	1	1	1_0.gif
205.002	1	2	0	2	0.351	2	1	2_0.gif
206.002	1	3	0	3	0.467	3	1	3_0.gif
207.002	1	1	0	1	0.459	1	1	1_0.gif
208.003	1	3	2	6	0	3	n/a	3_2.gif
209.003	1	2	2	6	0	1	n/a	2_2.gif
210.003	1	1	2	3	0.217	3	1	1_2.gif
211.003	1	3	2	2	0.21	2	1	3_2.gif
212.003	1	2	2	1	0.109	1	1	2_2.gif
213.003	1	4	2	3	0.116	3	1	4_2.gif
214.003	1	1	2	2	0.15	2	1	1_2.gif
215.003	1	3	2	4	0.054	4	1	3_2.gif
216.003	1	1	2	1	0.154	1	1	1_2.gif
217.003	1	4	2	3	0.159	3	1	4_2.gif
218.003	1	2	2	1	0.121	1	1	2_2.gif
219.003	1	3	2	4	0.193	4	1	3_2.gif
220.003	1	1	2	2	0.163	2	1	1_2.gif
221.003	1	3	2	3	0.299	3	1	3_2.gif
222.003	1	2	2	1	0.278	1	1	2_2.gif
223.003	1	4	2	3	0.302	3	1	4_2.gif
224.003	1	2	0	2	0.339	2	1	2_0.gif
225.003	1	3	0	3	0.376	3	1	3_0.gif
226.003	1	1	0	1	0.536	1	1	1_0.gif
227.003	1	2	0	2	0.51	2	1	2_0.gif
228.003	1	1	0	1	0.688	1	1	1_0.gif
229.003	1	3	0	3	0.565	3	1	3_0.gif
230.003	1	4	0	4	0.5	4	1	4_0.gif
231.003	1	1	0	1	0.427	1	1	1_0.gif
232.003	1	3	0	3	0.464	3	1	3_0.gif
233.003	1	1	0	1	0.417	1	1	1_0.gif
234.003	1	2	0	2	0.427	2	1	2_0.gif
235.003	1	3	0	3	0.281	3	1	3_0.gif
236.003	1	2	0	2	0.389	2	1	2_0.gif
237.003	1	4	0	4	0.451	4	1	4_0.gif
238.003	1	1	0	1	0.448	1	1	1_0.gif
239.003	1	4	0	4	0.525	4	1	4_0.gif
240.003	1	1	2	1	0.655	1	1	1_2.gif
241.003	1	3	2	6	0	4	n/a	3_2.gif
242.003	1	2	2	1	0.31	1	1	2_2.gif
243.003	1	1	2	3	0.281	3	1	1_2.gif
244.003	1	3	2	2	0.185	2	1	3_2.gif
245.003	1	4	2	1	0.215	1	1	4_2.gif
246.003	1	1	2	3	0.233	3	1	1_2.gif
247.003	1	3	2	4	0.174	4	1	3_2.gif
248.003	1	4	2	1	0.189	1	1	4_2.gif
249.003	1	1	2	3	0.157	3	1	1_2.gif
250.003	1	2	2	4	0.202	4	1	2_2.gif
251.003	1	3	2	1	0.135	1	1	3_2.gif
252.003	1	4	2	2	0.054	2	1	4_2.gif
253.003	1	3	2	3	0.1	3	1	3_2.gif
254.003	1	2	2	6	0	4	n/a	2_2.gif
255.003	1	4	2	3	0.543	3	1	4_2.gif
