onset	duration	nback_display	trial_type	response	response_time	correct_response	correct	stim_file
0	1	2	0	2	0.7	2	1	2_0.gif
1	1	1	0	1	0.522	1	1	1_0.gif
2	1	3	0	3	0.451	3	1	3_0.gif
3	1	2	0	2	0.387	2	1	2_0.gif
4	1	1	0	6	0	1	n/a	1_0.gif
5	1	2	0	2	0.332	2	1	2_0.gif
6	1	3	0	3	0.473	3	1	3_0.gif
7	1	2	0	2	0.363	2	1	2_0.gif
8	1	1	0	1	0.462	1	1	1_0.gif
9	1	4	0	4	0.474	4	1	4_0.gif
10	1	2	0	2	0.389	2	1	2_0.gif
11	1	4	0	4	0.46	4	1	4_0.gif
12	1	1	0	1	0.344	1	1	1_0.gif
13	1	2	0	2	0.306	2	1	2_0.gif
14	1	4	0	4	0.359	4	1	4_0.gif
15	1	2	0	2	0.366	2	1	2_0.gif
16	1	4	2	6	0	4	n/a	4_2.gif
17	1	1	2	6	0	2	n/a	1_2.gif
18	1	3	2	3	0.33	4	0	3_2.gif
19	1	2	2	4	0.373	1	0	2_2.gif
20	1	4	2	6	0	3	n/a	4_2.gif
21	1	1	2	6	0	2	n/a	1_2.gif
22	1	4	2	2	0.138	4	0	4_2.gif
23	1	1	2	4	0.104	1	0	1_2.gif
24	1	3	2	1	0.003	4	0	3_2.gif
25	1	4	2	1	0.551	1	1	4_2.gif
26	1	3	2	4	0.564	3	0	3_2.gif
27	1	1	2	3	0.249	4	0	1_2.gif
28	1	2	2	6	0	3	n/a	2_2.gif
29	1	4	2	1	0.216	1	1	4_2.gif
30	1	2	2	2	0.155	2	1	2_2.gif
31	1	3	2	4	0.132	4	1	3_2.gif
32	1	1	0	2	0.003	1	0	1_0.gif
33	1	4	0	1	0.003	4	0	4_0.gif
34	1	2	0	2	0.376	2	1	2_0.gif
35	1	3	0	3	0.379	3	1	3_0.gif
36	1	4	0	4	0.444	4	1	4_0.gif
37	1	3	0	3	0.375	3	1	3_0.gif
38	1	2	0	2	0.357	2	1	2_0.gif
39	1	1	0	1	0.385	1	1	1_0.gif
40	1	2	0	2	0.365	2	1	2_0.gif
41	1	4	0	4	0.426	4	1	4_0.gif
42	1	1	0	1	0.362	1	1	1_0.gif
43	1	3	0	3	0.297	3	1	3_0.gif
44	1	1	0	1	0.394	1	1	1_0.gif
45	1	2	0	2	0.284	2	1	2_0.gif
46	1	4	0	4	0.442	4	1	4_0.gif
47	1	1	0	1	0.402	1	1	1_0.gif
48	1	4	2	6	0	4	n/a	4_2.gif
49	1	2	2	6	0	1	n/a	2_2.gif
50.001	1	1	2	4	0.434	4	1	1_2.gif
51.001	1	2	2	2	0.265	2	1	2_2.gif
52.001	1	3	2	1	0.187	1	1	3_2.gif
53.001	1	4	2	2	0.003	2	1	4_2.gif
54.001	1	1	2	3	0.003	3	1	1_2.gif
55.001	1	2	2	4	0.003	4	1	2_2.gif
56.001	1	1	2	2	0.802	1	0	1_2.gif
57.001	1	2	2	2	0.003	2	1	2_2.gif
58.001	1	1	2	2	0.64	1	0	1_2.gif
59.001	1	3	2	1	0.47	2	0	3_2.gif
60.001	1	2	2	2	0.406	1	0	2_2.gif
61.001	1	1	2	3	0.173	3	1	1_2.gif
62.001	1	3	2	2	0.091	2	1	3_2.gif
63.001	1	2	2	1	0.023	1	1	2_2.gif
64.001	1	4	0	3	0.359	4	0	4_0.gif
65.001	1	2	0	2	0.371	2	1	2_0.gif
66.001	1	3	0	3	0.359	3	1	3_0.gif
67.001	1	1	0	1	0.354	1	1	1_0.gif
68.001	1	4	0	4	0.417	4	1	4_0.gif
69.001	1	2	0	2	0.307	2	1	2_0.gif
70.001	1	3	0	3	0.395	3	1	3_0.gif
71.001	1	1	0	1	0.363	1	1	1_0.gif
72.001	1	4	0	4	0.348	4	1	4_0.gif
73.001	1	1	0	1	0.359	1	1	1_0.gif
74.001	1	3	0	3	0.373	3	1	3_0.gif
75.001	1	2	0	2	0.409	2	1	2_0.gif
76.001	1	4	0	4	0.365	4	1	4_0.gif
77.001	1	1	0	1	0.32	1	1	1_0.gif
78.001	1	3	0	3	0.298	3	1	3_0.gif
79.001	1	1	0	1	0.399	1	1	1_0.gif
80.001	1	2	2	6	0	3	n/a	2_2.gif
81.001	1	3	2	6	0	1	n/a	3_2.gif
82.001	1	4	2	2	0.241	2	1	4_2.gif
83.001	1	3	2	3	0.126	3	1	3_2.gif
84.001	1	2	2	4	0.022	4	1	2_2.gif
85.001	1	3	2	3	0.003	3	1	3_2.gif
86.001	1	2	2	4	0.09	2	0	2_2.gif
87.001	1	4	2	3	0.123	3	1	4_2.gif
88.001	1	1	2	2	0.003	2	1	1_2.gif
89.001	1	4	2	3	0.003	4	0	4_2.gif
90.001	1	1	2	4	0.003	1	0	1_2.gif
91.001	1	3	2	1	0.003	4	0	3_2.gif
92.001	1	2	2	4	0.003	1	0	2_2.gif
93.001	1	1	2	3	0.746	3	1	1_2.gif
94.001	1	3	2	2	0.677	2	1	3_2.gif
95.001	1	4	2	1	0.623	1	1	4_2.gif
96.001	1	1	0	3	0.433	1	0	1_0.gif
97.001	1	3	0	3	0.479	3	1	3_0.gif
98.001	1	4	0	4	0.45	4	1	4_0.gif
99.001	1	1	0	1	0.381	1	1	1_0.gif
100.001	1	3	0	3	0.326	3	1	3_0.gif
101.001	1	4	0	4	0.356	4	1	4_0.gif
102.001	1	2	0	2	0.417	2	1	2_0.gif
103.001	1	1	0	1	0.299	1	1	1_0.gif
104.001	1	2	0	2	0.378	2	1	2_0.gif
105.001	1	4	0	4	0.303	4	1	4_0.gif
106.001	1	2	0	2	0.31	2	1	2_0.gif
107.001	1	4	0	4	0.499	4	1	4_0.gif
108.001	1	2	0	2	0.334	2	1	2_0.gif
109.001	1	3	0	3	0.367	3	1	3_0.gif
110.001	1	1	0	1	0.418	1	1	1_0.gif
111.001	1	3	0	3	0.346	3	1	3_0.gif
112.001	1	4	2	6	0	1	n/a	4_2.gif
113.001	1	1	2	6	0	3	n/a	1_2.gif
114.001	1	4	2	4	0.259	4	1	4_2.gif
115.001	1	2	2	1	0.068	1	1	2_2.gif
116.001	1	4	2	4	0.004	4	1	4_2.gif
117.001	1	1	2	2	0.004	2	1	1_2.gif
118.001	1	2	2	4	0.004	4	1	2_2.gif
119.001	1	1	2	2	0.004	1	0	1_2.gif
120.001	1	2	2	1	0.004	2	0	2_2.gif
121.001	1	4	2	1	0.711	1	1	4_2.gif
122.001	1	1	2	2	0.591	2	1	1_2.gif
123.001	1	4	2	4	0.519	4	1	4_2.gif
124.001	1	2	2	1	0.332	1	1	2_2.gif
125.001	1	4	2	6	0	4	n/a	4_2.gif
126.002	1	3	2	1	0.284	2	0	3_2.gif
127.002	1	2	2	2	0.003	4	0	2_2.gif
128.002	1	3	0	3	0.597	3	1	3_0.gif
129.002	1	1	0	1	0.385	1	1	1_0.gif
130.002	1	2	0	2	0.374	2	1	2_0.gif
131.002	1	3	0	3	0.294	3	1	3_0.gif
132.002	1	2	0	2	0.274	2	1	2_0.gif
133.002	1	1	0	1	0.337	1	1	1_0.gif
134.002	1	4	0	6	0	4	n/a	4_0.gif
135.002	1	3	0	3	0.387	3	1	3_0.gif
136.002	1	1	0	1	0.394	1	1	1_0.gif
137.002	1	3	0	3	0.315	3	1	3_0.gif
138.002	1	4	0	4	0.367	4	1	4_0.gif
139.002	1	3	0	3	0.334	3	1	3_0.gif
140.002	1	4	0	4	0.421	4	1	4_0.gif
141.002	1	1	0	1	0.327	1	1	1_0.gif
142.002	1	4	0	4	0.363	4	1	4_0.gif
143.002	1	1	0	1	0.254	1	1	1_0.gif
144.002	1	4	2	6	0	4	n/a	4_2.gif
145.002	1	2	2	6	0	1	n/a	2_2.gif
146.002	1	4	2	4	0.158	4	1	4_2.gif
147.002	1	3	2	2	0.033	2	1	3_2.gif
148.002	1	4	2	4	0.003	4	1	4_2.gif
149.002	1	1	2	3	0.003	3	1	1_2.gif
150.002	1	2	2	3	0.691	4	0	2_2.gif
151.002	1	1	2	1	0.856	1	1	1_2.gif
152.002	1	4	2	1	0.003	2	0	4_2.gif
153.002	1	3	2	1	0.932	1	1	3_2.gif
154.002	1	4	2	1	0.003	4	0	4_2.gif
155.002	1	1	2	4	0.033	3	0	1_2.gif
156.002	1	3	2	3	0.003	4	0	3_2.gif
157.002	1	1	2	1	0.603	1	1	1_2.gif
158.002	1	2	2	3	0.524	3	1	2_2.gif
159.002	1	1	2	1	0.338	1	1	1_2.gif
160.002	1	2	0	2	0.181	2	1	2_0.gif
161.002	1	1	0	1	0.404	1	1	1_0.gif
162.002	1	3	0	3	0.671	3	1	3_0.gif
163.002	1	4	0	6	0	4	n/a	4_0.gif
164.002	1	1	0	6	0	1	n/a	1_0.gif
165.002	1	2	0	2	0.365	2	1	2_0.gif
166.002	1	3	0	3	0.423	3	1	3_0.gif
167.002	1	2	0	2	0.348	2	1	2_0.gif
168.002	1	4	0	4	0.34	4	1	4_0.gif
169.002	1	2	0	2	0.342	2	1	2_0.gif
170.002	1	3	0	3	0.382	3	1	3_0.gif
171.002	1	2	0	2	0.352	2	1	2_0.gif
172.002	1	4	0	4	0.398	4	1	4_0.gif
173.002	1	2	0	2	0.315	2	1	2_0.gif
174.002	1	3	0	3	0.294	3	1	3_0.gif
175.002	1	2	0	2	0.348	2	1	2_0.gif
176.002	1	1	2	6	0	3	n/a	1_2.gif
177.002	1	2	2	6	0	2	n/a	2_2.gif
178.002	1	1	2	1	0.142	1	1	1_2.gif
179.002	1	4	2	2	0.111	2	1	4_2.gif
180.002	1	1	2	1	0.019	1	1	1_2.gif
181.002	1	3	2	4	0.066	4	1	3_2.gif
182.002	1	1	2	1	0.004	1	1	1_2.gif
183.002	1	4	2	3	0.004	3	1	4_2.gif
184.002	1	1	2	1	0.004	1	1	1_2.gif
185.002	1	4	2	6	0	4	n/a	4_2.gif
186.002	1	1	2	4	0.781	1	0	1_2.gif
187.002	1	3	2	1	0.631	4	0	3_2.gif
188.002	1	1	2	4	0.465	1	0	1_2.gif
189.002	1	4	2	1	0.283	3	0	4_2.gif
190.002	1	2	2	3	0.096	1	0	2_2.gif
191.002	1	1	2	1	0.004	4	0	1_2.gif
192.003	1	3	0	3	0.685	3	1	3_0.gif
193.003	1	2	0	2	0.554	2	1	2_0.gif
194.003	1	1	0	1	0.323	1	1	1_0.gif
195.003	1	2	0	2	0.318	2	1	2_0.gif
196.003	1	3	0	3	0.431	3	1	3_0.gif
197.003	1	2	0	2	0.474	2	1	2_0.gif
198.003	1	1	0	1	0.362	1	1	1_0.gif
199.003	1	4	0	4	0.401	4	1	4_0.gif
200.003	1	2	0	2	0.307	2	1	2_0.gif
201.003	1	4	0	4	0.468	4	1	4_0.gif
202.003	1	1	0	1	0.467	1	1	1_0.gif
203.003	1	2	0	2	0.399	2	1	2_0.gif
204.003	1	4	0	4	0.435	4	1	4_0.gif
205.003	1	2	0	2	0.282	2	1	2_0.gif
206.003	1	4	0	4	0.45	4	1	4_0.gif
207.003	1	1	0	1	0.415	1	1	1_0.gif
208.003	1	3	2	6	0	4	n/a	3_2.gif
209.003	1	2	2	6	0	1	n/a	2_2.gif
210.003	1	4	2	3	0.638	3	1	4_2.gif
211.003	1	1	2	2	0.473	2	1	1_2.gif
212.003	1	4	2	4	0.299	4	1	4_2.gif
213.003	1	1	2	1	0.128	1	1	1_2.gif
214.003	1	3	2	4	0.003	4	1	3_2.gif
215.003	1	4	2	1	0.003	1	1	4_2.gif
216.003	1	3	2	4	0.003	3	0	3_2.gif
217.003	1	1	2	1	0.003	4	0	1_2.gif
218.003	1	2	2	4	0.579	3	0	2_2.gif
219.003	1	4	2	3	0.599	1	0	4_2.gif
220.003	1	2	2	1	0.357	2	0	2_2.gif
221.003	1	3	2	2	0.13	4	0	3_2.gif
222.003	1	1	2	4	0.003	2	0	1_2.gif
223.003	1	4	2	3	0.003	3	1	4_2.gif
224.003	1	2	0	4	0.017	2	0	2_0.gif
225.003	1	3	0	3	0.345	3	1	3_0.gif
226.003	1	4	0	4	0.479	4	1	4_0.gif
227.003	1	3	0	3	0.365	3	1	3_0.gif
228.003	1	2	0	2	0.298	2	1	2_0.gif
229.003	1	1	0	1	0.426	1	1	1_0.gif
230.003	1	2	0	2	0.428	2	1	2_0.gif
231.003	1	4	0	4	0.359	4	1	4_0.gif
232.003	1	1	0	1	0.382	1	1	1_0.gif
233.003	1	3	0	3	0.387	3	1	3_0.gif
234.003	1	1	0	1	0.423	1	1	1_0.gif
235.003	1	2	0	2	0.389	2	1	2_0.gif
236.003	1	4	0	4	0.447	4	1	4_0.gif
237.003	1	1	0	1	0.397	1	1	1_0.gif
238.003	1	4	0	4	0.394	4	1	4_0.gif
239.003	1	2	0	2	0.332	2	1	2_0.gif
240.003	1	1	2	1	0.319	4	0	1_2.gif
241.003	1	2	2	6	0	2	n/a	2_2.gif
242.003	1	3	2	1	0.194	1	1	3_2.gif
243.003	1	4	2	2	0.066	2	1	4_2.gif
244.003	1	1	2	3	0.014	3	1	1_2.gif
245.003	1	2	2	4	0.004	4	1	2_2.gif
246.003	1	1	2	2	0.683	1	0	1_2.gif
247.003	1	2	2	1	0.66	2	0	2_2.gif
248.003	1	1	2	2	0.736	1	0	1_2.gif
249.003	1	3	2	1	0.65	2	0	3_2.gif
250.003	1	2	2	2	0.484	1	0	2_2.gif
251.003	1	1	2	3	0.212	3	1	1_2.gif
252.003	1	3	2	2	0.246	2	1	3_2.gif
253.003	1	2	2	1	0.024	1	1	2_2.gif
254.003	1	4	2	2	0.004	3	0	4_2.gif
255.003	1	2	2	3	0.004	2	0	2_2.gif
