onset	duration	nback_display	trial_type	response	response_time	correct_response	correct	stim_file
0	1	1	0	1	0.543	1	1	1_0.gif
1	1	4	0	4	0.451	4	1	4_0.gif
2	1	2	0	2	0.268	2	1	2_0.gif
3	1	1	0	1	0.325	1	1	1_0.gif
4	1	4	0	4	0.393	4	1	4_0.gif
5	1	1	0	1	0.429	1	1	1_0.gif
6	1	2	0	2	0.293	2	1	2_0.gif
7	1	1	0	1	0.427	1	1	1_0.gif
8	1	4	0	4	0.438	4	1	4_0.gif
9	1	3	0	3	0.42	3	1	3_0.gif
10	1	1	0	1	0.463	1	1	1_0.gif
11	1	3	0	3	0.397	3	1	3_0.gif
12	1	4	0	4	0.343	4	1	4_0.gif
13	1	1	0	1	0.384	1	1	1_0.gif
14	1	3	0	3	0.341	3	1	3_0.gif
15	1	1	0	1	0.372	1	1	1_0.gif
16.001	1	3	2	3	0.555	3	1	3_2.gif
17.001	1	4	2	6	0	1	n/a	4_2.gif
18.001	1	2	2	3	0.493	3	1	2_2.gif
19.001	1	1	2	4	0.412	4	1	1_2.gif
20.001	1	2	2	2	0.211	2	1	2_2.gif
21.001	1	1	2	1	0.345	1	1	1_2.gif
22.001	1	3	2	2	0.414	2	1	3_2.gif
23.001	1	1	2	1	0.388	1	1	1_2.gif
24.001	1	3	2	3	0.344	3	1	3_2.gif
25.001	1	2	2	1	0.267	1	1	2_2.gif
26.001	1	4	2	3	0.194	3	1	4_2.gif
27.001	1	2	2	2	0.014	2	1	2_2.gif
28.001	1	3	2	4	0.729	4	1	3_2.gif
29.001	1	1	2	4	0.015	2	0	1_2.gif
30.001	1	4	2	2	0.501	3	0	4_2.gif
31.001	1	1	2	6	0	1	n/a	1_2.gif
32.002	1	3	0	3	0.723	3	1	3_0.gif
33.002	1	1	0	1	0.441	1	1	1_0.gif
34.002	1	2	0	2	0.333	2	1	2_0.gif
35.002	1	4	0	4	0.405	4	1	4_0.gif
36.002	1	3	0	3	0.31	3	1	3_0.gif
37.002	1	1	0	1	0.3	1	1	1_0.gif
38.002	1	2	0	2	0.247	2	1	2_0.gif
39.002	1	1	0	1	0.491	1	1	1_0.gif
40.002	1	2	0	2	0.263	2	1	2_0.gif
41.002	1	3	0	3	0.416	3	1	3_0.gif
42.002	1	4	0	4	0.285	4	1	4_0.gif
43.002	1	2	0	2	0.36	2	1	2_0.gif
44.002	1	3	0	3	0.319	3	1	3_0.gif
45.002	1	1	0	1	0.346	1	1	1_0.gif
46.002	1	3	0	3	0.4	3	1	3_0.gif
47.002	1	4	0	4	0.389	4	1	4_0.gif
48.002	1	3	2	6	0	3	n/a	3_2.gif
49.002	1	1	2	6	0	4	n/a	1_2.gif
50.003	1	4	2	3	0.309	3	1	4_2.gif
51.003	1	1	2	1	0.178	1	1	1_2.gif
52.003	1	2	2	4	0.245	4	1	2_2.gif
53.003	1	3	2	1	0.274	1	1	3_2.gif
54.003	1	4	2	2	0.048	2	1	4_2.gif
55.003	1	1	2	3	0.2	3	1	1_2.gif
56.003	1	4	2	4	0.206	4	1	4_2.gif
57.003	1	1	2	1	0.051	1	1	1_2.gif
58.003	1	4	2	4	0.107	4	1	4_2.gif
59.003	1	2	2	1	0.052	1	1	2_2.gif
60.003	1	1	2	4	0.117	4	1	1_2.gif
61.003	1	4	2	2	0.014	2	1	4_2.gif
62.003	1	1	2	1	0.015	1	1	1_2.gif
63.003	1	2	2	4	0.015	4	1	2_2.gif
64.005	1	1	0	6	0	1	n/a	1_0.gif
65.006	1	3	0	1	0.088	3	0	3_0.gif
66.006	1	4	0	4	0.532	4	1	4_0.gif
67.006	1	2	0	2	0.301	2	1	2_0.gif
68.006	1	4	0	4	0.479	4	1	4_0.gif
69.006	1	3	0	3	0.379	3	1	3_0.gif
70.006	1	1	0	1	0.307	1	1	1_0.gif
71.006	1	2	0	2	0.376	2	1	2_0.gif
72.006	1	4	0	4	0.339	4	1	4_0.gif
73.006	1	3	0	3	0.265	3	1	3_0.gif
74.006	1	4	0	4	0.374	4	1	4_0.gif
75.006	1	2	0	2	0.427	2	1	2_0.gif
76.006	1	1	0	1	0.406	1	1	1_0.gif
77.006	1	3	0	3	0.401	3	1	3_0.gif
78.006	1	4	0	4	0.358	4	1	4_0.gif
79.006	1	2	0	2	0.353	2	1	2_0.gif
80.007	1	4	2	6	0	4	n/a	4_2.gif
81.007	1	2	2	6	0	2	n/a	2_2.gif
82.007	1	1	2	4	0.345	4	1	1_2.gif
83.007	1	3	2	2	0.228	2	1	3_2.gif
84.007	1	4	2	1	0.214	1	1	4_2.gif
85.007	1	1	2	3	0.014	3	1	1_2.gif
86.007	1	2	2	4	0.015	4	1	2_2.gif
87.007	1	4	2	2	0.973	1	0	4_2.gif
88.007	1	1	2	2	0.013	2	1	1_2.gif
89.007	1	3	2	4	0.442	4	1	3_2.gif
90.007	1	4	2	1	0.314	1	1	4_2.gif
91.007	1	3	2	3	0.081	3	1	3_2.gif
92.007	1	4	2	4	0.015	4	1	4_2.gif
93.007	1	2	2	3	0.015	3	1	2_2.gif
94.007	1	1	2	4	0.014	4	1	1_2.gif
95.007	1	4	2	2	0.314	2	1	4_2.gif
96.007	1	2	0	1	0.112	2	0	2_0.gif
97.007	1	3	0	3	0.503	3	1	3_0.gif
98.007	1	4	0	4	0.324	4	1	4_0.gif
99.007	1	2	0	2	0.277	2	1	2_0.gif
100.007	1	3	0	3	0.44	3	1	3_0.gif
101.007	1	4	0	4	0.492	4	1	4_0.gif
102.007	1	2	0	2	0.304	2	1	2_0.gif
103.007	1	3	0	3	0.352	3	1	3_0.gif
104.007	1	1	0	1	0.294	1	1	1_0.gif
105.007	1	3	0	3	0.369	3	1	3_0.gif
106.007	1	2	0	2	0.378	2	1	2_0.gif
107.007	1	1	0	3	0.449	1	0	1_0.gif
108.007	1	2	0	2	0.387	2	1	2_0.gif
109.007	1	3	0	3	0.344	3	1	3_0.gif
110.007	1	1	0	1	0.55	1	1	1_0.gif
111.007	1	2	0	2	0.267	2	1	2_0.gif
112.009	1	4	2	4	0.38	1	0	4_2.gif
113.009	1	1	2	6	0	2	n/a	1_2.gif
114.009	1	4	2	4	0.256	4	1	4_2.gif
115.009	1	1	2	1	0.06	1	1	1_2.gif
116.009	1	3	2	4	0.015	4	1	3_2.gif
117.009	1	4	2	1	0.014	1	1	4_2.gif
118.009	1	2	2	4	0.014	3	0	2_2.gif
119.009	1	1	2	2	0.823	4	0	1_2.gif
120.009	1	3	2	1	0.494	2	0	3_2.gif
121.009	1	2	2	1	0.513	1	1	2_2.gif
122.009	1	1	2	3	0.243	3	1	1_2.gif
123.009	1	2	2	2	0.329	2	1	2_2.gif
124.009	1	4	2	1	0.699	1	1	4_2.gif
125.009	1	1	2	2	0.707	2	1	1_2.gif
126.009	1	2	2	2	0.015	4	0	2_2.gif
127.009	1	1	2	4	0.016	1	0	1_2.gif
128.011	1	4	0	4	0.798	4	1	4_0.gif
129.011	1	3	0	4	0.014	3	0	3_0.gif
130.011	1	2	0	2	0.399	2	1	2_0.gif
131.011	1	4	0	4	0.454	4	1	4_0.gif
132.011	1	2	0	2	0.388	2	1	2_0.gif
133.011	1	3	0	3	0.344	3	1	3_0.gif
134.011	1	2	0	2	0.298	2	1	2_0.gif
135.011	1	3	0	3	0.321	3	1	3_0.gif
136.011	1	4	0	4	0.404	4	1	4_0.gif
137.011	1	3	0	3	0.338	3	1	3_0.gif
138.011	1	4	0	4	0.273	4	1	4_0.gif
139.011	1	3	0	3	0.263	3	1	3_0.gif
140.011	1	1	0	1	0.374	1	1	1_0.gif
141.011	1	3	0	3	0.337	3	1	3_0.gif
142.011	1	2	0	2	0.336	2	1	2_0.gif
143.011	1	4	0	4	0.342	4	1	4_0.gif
144.012	1	1	2	6	0	2	n/a	1_2.gif
145.012	1	4	2	6	0	4	n/a	4_2.gif
146.012	1	3	2	1	0.34	1	1	3_2.gif
147.012	1	1	2	4	0.332	4	1	1_2.gif
148.012	1	4	2	3	0.211	3	1	4_2.gif
149.012	1	2	2	1	0.141	1	1	2_2.gif
150.012	1	4	2	4	0.249	4	1	4_2.gif
151.012	1	2	2	2	0.069	2	1	2_2.gif
152.012	1	3	2	4	0.013	4	1	3_2.gif
153.012	1	4	2	2	0.015	2	1	4_2.gif
154.012	1	2	2	3	0.229	3	1	2_2.gif
155.012	1	1	2	4	0.429	4	1	1_2.gif
156.012	1	2	2	2	0.254	2	1	2_2.gif
157.012	1	1	2	1	0.364	1	1	1_2.gif
158.012	1	4	2	2	0.39	2	1	4_2.gif
159.012	1	3	2	1	0.356	1	1	3_2.gif
160.014	1	2	0	4	0.231	2	0	2_0.gif
161.014	1	4	0	2	0.014	4	0	4_0.gif
162.014	1	3	0	3	0.329	3	1	3_0.gif
163.014	1	1	0	3	0.423	1	0	1_0.gif
164.014	1	2	0	2	0.418	2	1	2_0.gif
165.014	1	1	0	1	0.393	1	1	1_0.gif
166.014	1	3	0	3	0.393	3	1	3_0.gif
167.014	1	1	0	1	0.483	1	1	1_0.gif
168.014	1	2	0	2	0.33	2	1	2_0.gif
169.014	1	1	0	1	0.345	1	1	1_0.gif
170.014	1	4	0	4	0.429	4	1	4_0.gif
171.014	1	1	0	1	0.439	1	1	1_0.gif
172.014	1	4	0	4	0.453	4	1	4_0.gif
173.014	1	3	0	3	0.348	3	1	3_0.gif
174.015	1	4	0	4	0.329	4	1	4_0.gif
175.015	1	2	0	2	0.425	2	1	2_0.gif
176.017	1	4	2	6	0	4	n/a	4_2.gif
177.017	1	3	2	4	0.845	2	0	3_2.gif
178.019	1	4	2	4	0.013	4	1	4_2.gif
179.019	1	3	2	3	0.016	3	1	3_2.gif
180.019	1	4	2	3	0.441	4	0	4_2.gif
181.019	1	2	2	4	0.138	3	0	2_2.gif
182.019	1	4	2	3	0.015	4	0	4_2.gif
183.02	1	3	2	4	0.276	2	0	3_2.gif
184.02	1	1	2	3	0.397	4	0	1_2.gif
185.02	1	4	2	1	0.86	3	0	4_2.gif
186.021	1	2	2	1	0.015	1	1	2_2.gif
187.022	1	1	2	4	0.016	4	1	1_2.gif
188.022	1	4	2	2	0.021	2	1	4_2.gif
189.022	1	1	2	1	0.014	1	1	1_2.gif
190.022	1	2	2	1	0.665	4	0	2_2.gif
191.023	1	1	2	2	0.493	1	0	1_2.gif
192.025	1	4	0	6	0	4	n/a	4_0.gif
193.029	1	3	0	4	0.061	3	0	3_0.gif
194.029	1	1	0	1	0.302	1	1	1_0.gif
195.029	1	3	0	3	0.388	3	1	3_0.gif
196.029	1	4	0	4	0.243	4	1	4_0.gif
197.029	1	1	0	1	0.533	1	1	1_0.gif
198.029	1	3	0	3	0.447	3	1	3_0.gif
199.029	1	1	0	1	0.497	1	1	1_0.gif
200.029	1	3	0	3	0.42	3	1	3_0.gif
201.03	1	4	0	4	0.409	4	1	4_0.gif
202.031	1	2	0	2	0.343	2	1	2_0.gif
203.032	1	1	0	1	0.313	1	1	1_0.gif
204.032	1	2	0	2	0.398	2	1	2_0.gif
205.033	1	1	0	1	0.434	1	1	1_0.gif
206.035	1	3	0	3	0.33	3	1	3_0.gif
207.035	1	1	0	1	0.479	1	1	1_0.gif
208.036	1	3	2	3	0.779	3	1	3_2.gif
209.037	1	2	2	6	0	1	n/a	2_2.gif
210.037	1	4	2	3	0.447	3	1	4_2.gif
211.037	1	2	2	2	0.352	2	1	2_2.gif
212.038	1	3	2	4	0.209	4	1	3_2.gif
213.038	1	1	2	2	0.052	2	1	1_2.gif
214.039	1	4	2	3	0.03	3	1	4_2.gif
215.039	1	1	2	1	0.017	1	1	1_2.gif
216.041	1	3	2	4	0.086	4	1	3_2.gif
217.042	1	1	2	1	0.038	1	1	1_2.gif
218.043	1	2	2	3	0.041	3	1	2_2.gif
219.043	1	4	2	1	0.034	1	1	4_2.gif
220.044	1	3	2	2	0.26	2	1	3_2.gif
221.044	1	1	2	4	0.254	4	1	1_2.gif
222.045	1	2	2	3	0.392	3	1	2_2.gif
223.046	1	1	2	1	0.228	1	1	1_2.gif
224.049	1	2	0	2	0.276	2	1	2_0.gif
225.049	1	3	0	3	0.383	3	1	3_0.gif
226.049	1	4	0	4	0.45	4	1	4_0.gif
227.05	1	2	0	2	0.386	2	1	2_0.gif
228.05	1	3	0	3	0.443	3	1	3_0.gif
229.052	1	1	0	1	0.658	1	1	1_0.gif
230.052	1	3	0	3	0.52	3	1	3_0.gif
231.052	1	4	0	4	0.28	4	1	4_0.gif
232.052	1	3	0	3	0.4	3	1	3_0.gif
233.054	1	1	0	1	0.331	1	1	1_0.gif
234.054	1	4	0	4	0.398	4	1	4_0.gif
235.054	1	1	0	1	0.465	1	1	1_0.gif
236.055	1	2	0	2	0.378	2	1	2_0.gif
237.056	1	3	0	3	0.394	3	1	3_0.gif
238.056	1	4	0	4	0.4	4	1	4_0.gif
239.057	1	1	0	1	0.352	1	1	1_0.gif
240.058	1	4	2	6	0	4	n/a	4_2.gif
241.058	1	1	2	6	0	1	n/a	1_2.gif
242.058	1	4	2	4	0.276	4	1	4_2.gif
243.059	1	2	2	1	0.136	1	1	2_2.gif
244.059	1	1	2	4	0.096	4	1	1_2.gif
245.06	1	4	2	2	0.144	2	1	4_2.gif
246.06	1	1	2	1	0.06	1	1	1_2.gif
247.061	1	2	2	4	0.015	4	1	2_2.gif
248.062	1	1	2	1	0.014	1	1	1_2.gif
249.062	1	3	2	2	0.016	2	1	3_2.gif
250.062	1	4	2	1	0.082	1	1	4_2.gif
251.063	1	2	2	3	0.037	3	1	2_2.gif
252.063	1	4	2	6	0	4	n/a	4_2.gif
253.063	1	3	2	6	0	2	n/a	3_2.gif
254.063	1	1	2	6	0	4	n/a	1_2.gif
255.063	1	2	2	3	0.314	3	1	2_2.gif
