onset	duration	nback_display	trial_type	response	response_time	correct_response	correct	stim_file
0	1	3	0	6	0	3	n/a	3_0.gif
1	1	4	0	4	0.911	4	1	4_0.gif
2	1	3	0	4	0.008	3	0	3_0.gif
3	1	4	0	3	0.009	4	0	4_0.gif
4	1	3	0	4	0.009	3	0	3_0.gif
5	1	4	0	3	0.009	4	0	4_0.gif
6	1	3	0	4	0.009	3	0	3_0.gif
7	1	2	0	2	0.701	2	1	2_0.gif
8	1	3	0	3	0.552	3	1	3_0.gif
9	1	2	0	2	0.535	2	1	2_0.gif
10	1	1	0	1	0.496	1	1	1_0.gif
11	1	2	0	2	0.962	2	1	2_0.gif
12	1	1	0	2	0.008	1	0	1_0.gif
13	1	4	0	4	0.553	4	1	4_0.gif
14	1	3	0	3	0.471	3	1	3_0.gif
15	1	2	0	2	0.758	2	1	2_0.gif
16	1	4	2	2	0.008	3	0	4_2.gif
17	1	1	2	4	0.008	2	0	1_2.gif
18	1	3	2	4	0.566	4	1	3_2.gif
19	1	4	2	1	0.282	1	1	4_2.gif
20	1	1	2	3	0.268	3	1	1_2.gif
21	1	2	2	4	0.227	4	1	2_2.gif
22	1	3	2	1	0.205	1	1	3_2.gif
23	1	4	2	2	0.218	2	1	4_2.gif
24	1	1	2	3	0.215	3	1	1_2.gif
25	1	4	2	4	0.135	4	1	4_2.gif
26	1	2	2	1	0.037	1	1	2_2.gif
27	1	4	2	4	0.074	4	1	4_2.gif
28	1	1	2	2	0.175	2	1	1_2.gif
29	1	3	2	4	0.074	4	1	3_2.gif
30	1	4	2	1	0.009	1	1	4_2.gif
31	1	2	2	3	0.008	3	1	2_2.gif
32.001	1	1	0	4	0.009	1	0	1_0.gif
33.001	1	4	0	1	0.008	4	0	4_0.gif
34.001	1	3	0	4	0.008	3	0	3_0.gif
35.001	1	4	0	3	0.009	4	0	4_0.gif
36.001	1	2	0	4	0.009	2	0	2_0.gif
37.001	1	4	0	2	0.009	4	0	4_0.gif
38.001	1	3	0	3	0.406	3	1	3_0.gif
39.001	1	2	0	2	0.48	2	1	2_0.gif
40.001	1	3	0	3	0.4	3	1	3_0.gif
41.001	1	1	0	1	0.441	1	1	1_0.gif
42.001	1	2	0	2	0.516	2	1	2_0.gif
43.001	1	3	0	3	0.45	3	1	3_0.gif
44.001	1	4	0	4	0.432	4	1	4_0.gif
45.001	1	3	0	3	0.389	3	1	3_0.gif
46.001	1	1	0	1	0.444	1	1	1_0.gif
47.001	1	2	0	2	0.407	2	1	2_0.gif
48.002	1	4	2	4	0.415	1	0	4_2.gif
49.002	1	3	2	6	0	2	n/a	3_2.gif
50.002	1	1	2	4	0.223	4	1	1_2.gif
51.002	1	3	2	3	0.09	3	1	3_2.gif
52.002	1	2	2	1	0.008	1	1	2_2.gif
53.002	1	1	2	3	0.008	3	1	1_2.gif
54.002	1	3	2	2	0.024	2	1	3_2.gif
55.002	1	4	2	1	0.015	1	1	4_2.gif
56.002	1	3	2	3	0.008	3	1	3_2.gif
57.002	1	2	2	4	0.008	4	1	2_2.gif
58.002	1	4	2	3	0.008	3	1	4_2.gif
59.002	1	2	2	2	0.008	2	1	2_2.gif
60.002	1	1	2	4	0.008	4	1	1_2.gif
61.002	1	4	2	2	0.008	2	1	4_2.gif
62.002	1	2	2	1	0.008	1	1	2_2.gif
63.002	1	4	2	4	0.009	4	1	4_2.gif
64.003	1	2	0	2	0.008	2	1	2_0.gif
65.003	1	3	0	4	0.164	3	0	3_0.gif
66.003	1	1	0	1	0.412	1	1	1_0.gif
67.003	1	3	0	3	0.422	3	1	3_0.gif
68.003	1	4	0	4	0.473	4	1	4_0.gif
69.003	1	3	0	3	0.52	3	1	3_0.gif
70.003	1	1	0	1	0.325	1	1	1_0.gif
71.003	1	4	0	4	0.445	4	1	4_0.gif
72.003	1	2	0	2	0.469	2	1	2_0.gif
73.003	1	4	0	4	0.498	4	1	4_0.gif
74.003	1	2	0	2	0.513	2	1	2_0.gif
75.003	1	1	0	1	0.492	1	1	1_0.gif
76.003	1	4	0	4	0.511	4	1	4_0.gif
77.003	1	3	0	3	0.398	3	1	3_0.gif
78.003	1	4	0	4	0.447	4	1	4_0.gif
79.003	1	2	0	2	0.514	2	1	2_0.gif
80.003	1	1	2	6	0	4	n/a	1_2.gif
81.011	1	2	2	6	0	2	n/a	2_2.gif
82.011	1	3	2	1	0.126	1	1	3_2.gif
83.012	1	1	2	2	0.069	2	1	1_2.gif
84.012	1	3	2	3	0.041	3	1	3_2.gif
85.012	1	2	2	1	0.01	1	1	2_2.gif
86.012	1	4	2	3	0.009	3	1	4_2.gif
87.012	1	1	2	2	0.008	2	1	1_2.gif
88.012	1	4	2	4	0.009	4	1	4_2.gif
89.012	1	3	2	1	0.009	1	1	3_2.gif
90.012	1	4	2	4	0.009	4	1	4_2.gif
91.012	1	2	2	3	0.009	3	1	2_2.gif
92.012	1	3	2	4	0.009	4	1	3_2.gif
93.012	1	2	2	2	0.009	2	1	2_2.gif
94.012	1	1	2	3	0.025	3	1	1_2.gif
95.012	1	2	2	2	0.019	2	1	2_2.gif
96.013	1	3	0	1	0.009	3	0	3_0.gif
97.013	1	2	0	3	0.009	2	0	2_0.gif
98.013	1	4	0	2	0.008	4	0	4_0.gif
99.013	1	3	0	3	0.459	3	1	3_0.gif
100.013	1	4	0	4	0.464	4	1	4_0.gif
101.013	1	1	0	1	0.419	1	1	1_0.gif
102.013	1	2	0	2	0.413	2	1	2_0.gif
103.013	1	1	0	1	0.444	1	1	1_0.gif
104.013	1	4	0	4	0.412	4	1	4_0.gif
105.013	1	1	0	1	0.429	1	1	1_0.gif
106.013	1	3	0	3	0.373	3	1	3_0.gif
107.013	1	1	0	1	0.438	1	1	1_0.gif
108.013	1	2	0	2	0.458	2	1	2_0.gif
109.013	1	3	0	3	0.373	3	1	3_0.gif
110.013	1	1	0	1	0.379	1	1	1_0.gif
111.013	1	2	0	2	0.431	2	1	2_0.gif
112.013	1	1	2	6	0	1	n/a	1_2.gif
113.013	1	3	2	6	0	2	n/a	3_2.gif
114.013	1	4	2	1	0.079	1	1	4_2.gif
115.013	1	2	2	3	0.1	3	1	2_2.gif
116.013	1	4	2	4	0.052	4	1	4_2.gif
117.013	1	1	2	2	0.009	2	1	1_2.gif
118.013	1	4	2	4	0.009	4	1	4_2.gif
119.013	1	2	2	1	0.009	1	1	2_2.gif
120.013	1	1	2	4	0.009	4	1	1_2.gif
121.013	1	2	2	2	0.009	2	1	2_2.gif
122.013	1	1	2	1	0.009	1	1	1_2.gif
123.013	1	2	2	2	0.009	2	1	2_2.gif
124.013	1	1	2	1	0.019	1	1	1_2.gif
125.013	1	3	2	2	0.009	2	1	3_2.gif
126.013	1	4	2	1	0.009	1	1	4_2.gif
127.013	1	1	2	3	0.009	3	1	1_2.gif
128.014	1	2	0	4	0.008	2	0	2_0.gif
129.014	1	4	0	1	0.009	4	0	4_0.gif
130.014	1	1	0	1	0.363	1	1	1_0.gif
131.014	1	4	0	4	0.298	4	1	4_0.gif
132.014	1	2	0	2	0.355	2	1	2_0.gif
133.014	1	3	0	3	0.259	3	1	3_0.gif
134.014	1	1	0	1	0.246	1	1	1_0.gif
135.014	1	2	0	2	0.357	2	1	2_0.gif
136.014	1	3	0	3	0.385	3	1	3_0.gif
137.014	1	4	0	4	0.442	4	1	4_0.gif
138.014	1	3	0	3	0.421	3	1	3_0.gif
139.014	1	1	0	1	0.55	1	1	1_0.gif
140.014	1	2	0	2	0.428	2	1	2_0.gif
141.014	1	1	0	1	0.397	1	1	1_0.gif
142.014	1	2	0	2	0.479	2	1	2_0.gif
143.014	1	1	0	1	0.353	1	1	1_0.gif
144.015	1	2	2	2	0.383	2	1	2_2.gif
145.015	1	1	2	6	0	1	n/a	1_2.gif
146.015	1	4	2	2	0.113	2	1	4_2.gif
147.015	1	2	2	1	0.086	1	1	2_2.gif
148.015	1	1	2	4	0.009	4	1	1_2.gif
149.015	1	4	2	2	0.009	2	1	4_2.gif
150.015	1	2	2	1	0.009	1	1	2_2.gif
151.015	1	1	2	4	0.009	4	1	1_2.gif
152.015	1	3	2	2	0.009	2	1	3_2.gif
153.015	1	2	2	1	0.009	1	1	2_2.gif
154.015	1	1	2	3	0.11	3	1	1_2.gif
155.015	1	2	2	2	0.203	2	1	2_2.gif
156.015	1	1	2	1	0.127	1	1	1_2.gif
157.015	1	4	2	2	0.009	2	1	4_2.gif
158.015	1	1	2	1	0.009	1	1	1_2.gif
159.015	1	3	2	4	0.009	4	1	3_2.gif
160.016	1	4	0	1	0.009	4	0	4_0.gif
161.016	1	2	0	4	0.008	2	0	2_0.gif
162.016	1	3	0	3	0.213	3	1	3_0.gif
163.016	1	4	0	4	0.444	4	1	4_0.gif
164.016	1	2	0	1	0.262	2	0	2_0.gif
165.016	1	4	0	4	0.445	4	1	4_0.gif
166.016	1	2	0	2	0.383	2	1	2_0.gif
167.044	1	4	0	4	0.451	4	1	4_0.gif
168.044	1	1	0	1	0.429	1	1	1_0.gif
169.044	1	2	0	2	0.396	2	1	2_0.gif
170.044	1	1	0	1	0.468	1	1	1_0.gif
171.044	1	4	0	4	0.519	4	1	4_0.gif
172.044	1	2	0	2	0.406	2	1	2_0.gif
173.044	1	3	0	3	0.494	3	1	3_0.gif
174.044	1	2	0	2	0.458	2	1	2_0.gif
175.044	1	3	0	3	0.452	3	1	3_0.gif
176.045	1	4	2	4	0.451	2	0	4_2.gif
177.045	1	3	2	6	0	3	n/a	3_2.gif
178.045	1	4	2	4	0.042	4	1	4_2.gif
179.045	1	1	2	3	0.029	3	1	1_2.gif
180.045	1	2	2	4	0.015	4	1	2_2.gif
181.045	1	3	2	1	0.067	1	1	3_2.gif
182.045	1	1	2	2	0.151	2	1	1_2.gif
183.045	1	2	2	3	0.195	3	1	2_2.gif
184.045	1	4	2	1	0.266	1	1	4_2.gif
185.045	1	3	2	2	0.208	2	1	3_2.gif
186.045	1	4	2	4	0.344	4	1	4_2.gif
187.045	1	2	2	3	0.327	3	1	2_2.gif
188.045	1	3	2	4	0.298	4	1	3_2.gif
189.045	1	4	2	2	0.264	2	1	4_2.gif
190.045	1	1	2	3	0.355	3	1	1_2.gif
191.045	1	4	2	4	0.256	4	1	4_2.gif
192.045	1	3	0	1	0.199	3	0	3_0.gif
193.045	1	2	0	3	0.008	2	0	2_0.gif
194.045	1	1	0	2	0.008	1	0	1_0.gif
195.045	1	3	0	3	0.403	3	1	3_0.gif
196.045	1	1	0	1	0.434	1	1	1_0.gif
197.045	1	2	0	2	0.342	2	1	2_0.gif
198.045	1	3	0	3	0.379	3	1	3_0.gif
199.046	1	2	0	2	0.355	2	1	2_0.gif
200.046	1	4	0	4	0.377	4	1	4_0.gif
201.046	1	2	0	2	0.406	2	1	2_0.gif
202.046	1	4	0	4	0.483	4	1	4_0.gif
203.046	1	3	0	3	0.386	3	1	3_0.gif
204.046	1	4	0	4	0.449	4	1	4_0.gif
205.046	1	3	0	3	0.384	3	1	3_0.gif
206.046	1	4	0	4	0.342	4	1	4_0.gif
207.046	1	3	0	3	0.269	3	1	3_0.gif
208.046	1	4	2	4	0.461	4	1	4_2.gif
209.046	1	3	2	6	0	3	n/a	3_2.gif
210.046	1	2	2	4	0.097	4	1	2_2.gif
211.046	1	3	2	3	0.045	3	1	3_2.gif
212.046	1	2	2	2	0.009	2	1	2_2.gif
213.046	1	1	2	3	0.475	3	1	1_2.gif
214.046	1	2	2	2	0.204	2	1	2_2.gif
215.046	1	1	2	1	0.184	1	1	1_2.gif
216.046	1	4	2	2	0.177	2	1	4_2.gif
217.046	1	3	2	1	0.2	1	1	3_2.gif
218.046	1	2	2	4	0.204	4	1	2_2.gif
219.046	1	4	2	3	0.232	3	1	4_2.gif
220.046	1	1	2	2	0.132	2	1	1_2.gif
221.046	1	3	2	4	0.196	4	1	3_2.gif
222.046	1	4	2	1	0.203	1	1	4_2.gif
223.046	1	1	2	3	0.274	3	1	1_2.gif
224.047	1	2	0	4	0.244	2	0	2_0.gif
225.047	1	3	0	6	0	3	n/a	3_0.gif
226.047	1	4	0	4	0.328	4	1	4_0.gif
227.047	1	1	0	1	0.388	1	1	1_0.gif
228.047	1	4	0	4	0.283	4	1	4_0.gif
229.047	1	2	0	2	0.375	2	1	2_0.gif
230.047	1	4	0	4	0.645	4	1	4_0.gif
231.047	1	1	0	1	0.54	1	1	1_0.gif
232.047	1	3	0	3	0.518	3	1	3_0.gif
233.047	1	4	0	4	0.487	4	1	4_0.gif
234.047	1	2	0	2	0.667	2	1	2_0.gif
235.047	1	1	0	2	0.008	1	0	1_0.gif
236.047	1	4	0	4	0.645	4	1	4_0.gif
237.047	1	3	0	3	0.693	3	1	3_0.gif
238.047	1	4	0	4	0.711	4	1	4_0.gif
239.047	1	2	0	2	0.697	2	1	2_0.gif
240.048	1	4	2	4	0.832	4	1	4_2.gif
241.048	1	3	2	4	0.008	2	0	3_2.gif
242.048	1	2	2	4	0.2	4	1	2_2.gif
243.048	1	3	2	3	0.138	3	1	3_2.gif
244.048	1	1	2	2	0.196	2	1	1_2.gif
245.048	1	2	2	3	0.206	3	1	2_2.gif
246.048	1	3	2	1	0.217	1	1	3_2.gif
247.048	1	4	2	2	0.217	2	1	4_2.gif
248.048	1	3	2	3	0.183	3	1	3_2.gif
249.048	1	1	2	4	0.008	4	1	1_2.gif
250.048	1	2	2	3	0.126	3	1	2_2.gif
251.048	1	4	2	1	0.089	1	1	4_2.gif
252.048	1	3	2	2	0.043	2	1	3_2.gif
253.048	1	1	2	4	0.008	4	1	1_2.gif
254.048	1	3	2	3	0.008	3	1	3_2.gif
255.048	1	2	2	6	0	1	n/a	2_2.gif
