onset	duration	nback_display	trial_type	response	response_time	correct_response	correct	stim_file
0	1	1	0	1	0.664	1	1	1_0.gif
1	1	4	0	4	0.849	4	1	4_0.gif
2	1	1	0	1	0.518	1	1	1_0.gif
3	1	4	0	4	0.471	4	1	4_0.gif
4	1	1	0	1	0.427	1	1	1_0.gif
5	1	2	0	2	0.294	2	1	2_0.gif
6	1	1	0	1	0.467	1	1	1_0.gif
7	1	3	0	3	0.352	3	1	3_0.gif
8	1	2	0	2	0.376	2	1	2_0.gif
9	1	1	0	1	0.239	1	1	1_0.gif
10	1	2	0	2	0.313	2	1	2_0.gif
11	1	3	0	3	0.384	3	1	3_0.gif
12	1	4	0	4	0.317	4	1	4_0.gif
13	1	3	0	3	0.437	3	1	3_0.gif
14	1	4	0	4	0.584	4	1	4_0.gif
15	1	3	0	3	0.489	3	1	3_0.gif
16	1	4	2	6	0	4	n/a	4_2.gif
17	1	1	2	6	0	3	n/a	1_2.gif
18	1	4	2	4	0.483	4	1	4_2.gif
19	1	2	2	1	0.318	1	1	2_2.gif
20	1	1	2	4	0.761	4	1	1_2.gif
21	1	3	2	2	0.537	2	1	3_2.gif
22	1	1	2	1	0.543	1	1	1_2.gif
23	1	2	2	3	0.416	3	1	2_2.gif
24	1	3	2	1	0.517	1	1	3_2.gif
25	1	2	2	2	0.485	2	1	2_2.gif
26	1	4	2	3	0.58	3	1	4_2.gif
27	1	1	2	2	0.379	2	1	1_2.gif
28	1	2	2	6	0	4	n/a	2_2.gif
29	1	3	2	4	0.319	1	0	3_2.gif
30	1	4	2	1	0.733	2	0	4_2.gif
31	1	1	2	2	0.978	3	0	1_2.gif
32	1	3	0	2	0.003	3	0	3_0.gif
33	1	1	0	3	0.004	1	0	1_0.gif
34	1	2	0	2	0.398	2	1	2_0.gif
35	1	4	0	4	0.479	4	1	4_0.gif
36	1	3	0	3	0.272	3	1	3_0.gif
37	1	2	0	2	0.344	2	1	2_0.gif
38	1	1	0	1	0.315	1	1	1_0.gif
39	1	2	0	2	0.291	2	1	2_0.gif
40	1	4	0	4	0.566	4	1	4_0.gif
41	1	2	0	2	0.515	2	1	2_0.gif
42	1	4	0	4	0.445	4	1	4_0.gif
43	1	2	0	2	0.543	2	1	2_0.gif
44	1	1	0	1	0.397	1	1	1_0.gif
45	1	2	0	1	0.04	2	0	2_0.gif
46	1	1	0	2	0.003	1	0	1_0.gif
47	1	3	0	3	0.509	3	1	3_0.gif
48.001	1	4	2	6	0	1	n/a	4_2.gif
49.001	1	2	2	4	0.083	3	0	2_2.gif
50.001	1	1	2	6	0	4	n/a	1_2.gif
51.001	1	3	2	4	0.047	2	0	3_2.gif
52.001	1	1	2	2	0.003	1	0	1_2.gif
53.001	1	2	2	3	0.191	3	1	2_2.gif
54.001	1	3	2	1	0.222	1	1	3_2.gif
55.001	1	1	2	2	0.411	2	1	1_2.gif
56.001	1	2	2	3	0.263	3	1	2_2.gif
57.001	1	1	2	1	0.286	1	1	1_2.gif
58.001	1	4	2	2	0.15	2	1	4_2.gif
59.001	1	2	2	1	0.124	1	1	2_2.gif
60.001	1	4	2	4	0.169	4	1	4_2.gif
61.001	1	3	2	2	0.173	2	1	3_2.gif
62.001	1	2	2	4	0.068	4	1	2_2.gif
63.001	1	4	2	3	0.191	3	1	4_2.gif
64.001	1	2	0	2	0.267	2	1	2_0.gif
65.001	1	4	0	4	0.529	4	1	4_0.gif
66.001	1	1	0	1	0.371	1	1	1_0.gif
67.001	1	3	0	3	0.374	3	1	3_0.gif
68.001	1	1	0	1	0.479	1	1	1_0.gif
69.001	1	2	0	2	0.381	2	1	2_0.gif
70.001	1	1	0	1	0.414	1	1	1_0.gif
71.001	1	3	0	3	0.249	3	1	3_0.gif
72.001	1	2	0	2	0.256	2	1	2_0.gif
73.001	1	4	0	4	0.403	4	1	4_0.gif
74.001	1	2	0	2	0.36	2	1	2_0.gif
75.001	1	4	0	4	0.463	4	1	4_0.gif
76.001	1	3	0	3	0.347	3	1	3_0.gif
77.001	1	4	0	2	0.417	4	0	4_0.gif
78.001	1	1	0	1	0.63	1	1	1_0.gif
79.001	1	2	0	2	0.646	2	1	2_0.gif
80.001	1	4	2	6	0	1	n/a	4_2.gif
81.001	1	3	2	6	0	2	n/a	3_2.gif
82.001	1	4	2	4	0.09	4	1	4_2.gif
83.001	1	1	2	3	0.003	3	1	1_2.gif
84.001	1	2	2	4	0.003	4	1	2_2.gif
85.001	1	3	2	1	0.028	1	1	3_2.gif
86.001	1	4	2	2	0.253	2	1	4_2.gif
87.001	1	1	2	3	0.015	3	1	1_2.gif
88.001	1	3	2	1	0.049	4	0	3_2.gif
89.001	1	4	2	1	0.692	1	1	4_2.gif
90.001	1	1	2	6	0	3	n/a	1_2.gif
91.002	1	4	2	4	0.116	4	1	4_2.gif
92.002	1	1	2	1	0.094	1	1	1_2.gif
93.002	1	2	2	4	0.145	4	1	2_2.gif
94.002	1	3	2	3	0.146	1	0	3_2.gif
95.002	1	1	2	2	0.272	2	1	1_2.gif
96.002	1	4	0	3	0.008	4	0	4_0.gif
97.002	1	1	0	4	0.003	1	0	1_0.gif
98.002	1	3	0	3	0.433	3	1	3_0.gif
99.002	1	2	0	2	0.357	2	1	2_0.gif
100.002	1	4	0	4	0.443	4	1	4_0.gif
101.002	1	2	0	2	0.381	2	1	2_0.gif
102.002	1	3	0	3	0.326	3	1	3_0.gif
103.002	1	4	0	4	0.469	4	1	4_0.gif
104.002	1	3	0	3	0.443	3	1	3_0.gif
105.002	1	2	0	2	0.336	2	1	2_0.gif
106.002	1	3	0	3	0.635	3	1	3_0.gif
107.002	1	1	0	1	0.845	1	1	1_0.gif
108.002	1	2	0	2	0.451	2	1	2_0.gif
109.002	1	1	0	1	0.42	1	1	1_0.gif
110.002	1	3	0	3	0.445	3	1	3_0.gif
111.002	1	4	0	4	0.357	4	1	4_0.gif
112.003	1	3	2	6	0	3	n/a	3_2.gif
113.003	1	1	2	6	0	4	n/a	1_2.gif
114.003	1	2	2	3	0.181	3	1	2_2.gif
115.003	1	4	2	1	0.005	1	1	4_2.gif
116.003	1	2	2	2	0.003	2	1	2_2.gif
117.003	1	3	2	4	0.003	4	1	3_2.gif
118.003	1	2	2	3	0.781	2	0	2_2.gif
119.003	1	4	2	2	0.731	3	0	4_2.gif
120.003	1	3	2	4	0.495	2	0	3_2.gif
121.003	1	4	2	3	0.407	4	0	4_2.gif
122.003	1	3	2	3	0.826	3	1	3_2.gif
123.003	1	4	2	4	0.976	4	1	4_2.gif
124.003	1	1	2	4	0.003	3	0	1_2.gif
125.003	1	2	2	3	0.239	4	0	2_2.gif
126.003	1	3	2	1	0.21	1	1	3_2.gif
127.003	1	4	2	2	0.129	2	1	4_2.gif
128.003	1	3	0	3	0.167	3	1	3_0.gif
129.003	1	2	0	2	0.451	2	1	2_0.gif
130.003	1	4	0	4	0.493	4	1	4_0.gif
131.003	1	1	0	1	0.451	1	1	1_0.gif
132.003	1	3	0	3	0.29	3	1	3_0.gif
133.003	1	4	0	4	0.446	4	1	4_0.gif
134.003	1	1	0	1	0.367	1	1	1_0.gif
135.003	1	2	0	2	0.29	2	1	2_0.gif
136.003	1	1	0	1	0.599	1	1	1_0.gif
137.003	1	3	0	3	0.297	3	1	3_0.gif
138.003	1	2	0	2	0.368	2	1	2_0.gif
139.003	1	3	0	3	0.375	3	1	3_0.gif
140.003	1	2	0	2	0.384	2	1	2_0.gif
141.003	1	3	0	3	0.393	3	1	3_0.gif
142.003	1	2	0	2	0.469	2	1	2_0.gif
143.003	1	3	0	3	0.526	3	1	3_0.gif
144.003	1	2	2	6	0	2	n/a	2_2.gif
145.003	1	4	2	6	0	3	n/a	4_2.gif
146.003	1	3	2	2	0.171	2	1	3_2.gif
147.003	1	4	2	4	0.073	4	1	4_2.gif
148.003	1	1	2	3	0.003	3	1	1_2.gif
149.003	1	2	2	4	0.003	4	1	2_2.gif
150.003	1	3	2	1	0.003	1	1	3_2.gif
151.003	1	2	2	3	0.835	2	0	2_2.gif
152.003	1	3	2	2	0.715	3	0	3_2.gif
153.003	1	1	2	3	0.953	2	0	1_2.gif
154.003	1	2	2	3	0.003	3	1	2_2.gif
155.003	1	3	2	1	0.003	1	1	3_2.gif
156.003	1	2	2	3	0.639	2	0	2_2.gif
157.003	1	1	2	2	0.444	3	0	1_2.gif
158.003	1	4	2	1	0.314	2	0	4_2.gif
159.003	1	2	2	4	0.315	1	0	2_2.gif
160.004	1	3	0	6	0	3	n/a	3_0.gif
161.004	1	4	0	3	0.621	4	0	4_0.gif
162.004	1	3	0	3	0.539	3	1	3_0.gif
163.004	1	4	0	4	0.473	4	1	4_0.gif
164.004	1	1	0	1	0.554	1	1	1_0.gif
165.004	1	2	0	2	0.349	2	1	2_0.gif
166.004	1	4	0	4	0.437	4	1	4_0.gif
167.004	1	1	0	1	0.415	1	1	1_0.gif
168.004	1	2	0	2	0.336	2	1	2_0.gif
169.004	1	1	0	1	0.374	1	1	1_0.gif
170.004	1	2	0	2	0.425	2	1	2_0.gif
171.004	1	4	0	4	0.489	4	1	4_0.gif
172.004	1	3	0	3	0.339	3	1	3_0.gif
173.004	1	1	0	1	0.542	1	1	1_0.gif
174.004	1	2	0	2	0.298	2	1	2_0.gif
175.004	1	4	0	4	0.568	4	1	4_0.gif
176.004	1	2	2	6	0	2	n/a	2_2.gif
177.004	1	1	2	6	0	4	n/a	1_2.gif
178.004	1	2	2	2	0.194	2	1	2_2.gif
179.004	1	4	2	1	0.094	1	1	4_2.gif
180.004	1	1	2	2	0.103	2	1	1_2.gif
181.004	1	2	2	4	0.117	4	1	2_2.gif
182.004	1	3	2	1	0.041	1	1	3_2.gif
183.004	1	2	2	2	0.112	2	1	2_2.gif
184.004	1	1	2	3	0.003	3	1	1_2.gif
185.004	1	4	2	2	0.05	2	1	4_2.gif
186.004	1	2	2	4	0.07	1	0	2_2.gif
187.004	1	1	2	2	0.898	4	0	1_2.gif
188.004	1	3	2	2	0.003	2	1	3_2.gif
189.004	1	4	2	3	0.102	1	0	4_2.gif
190.004	1	3	2	4	0.003	3	0	3_2.gif
191.004	1	4	2	3	0.415	4	0	4_2.gif
192.004	1	3	0	3	0.782	3	1	3_0.gif
193.004	1	4	0	4	0.588	4	1	4_0.gif
194.004	1	2	0	2	0.343	2	1	2_0.gif
195.004	1	4	0	4	0.562	4	1	4_0.gif
196.004	1	2	0	2	0.381	2	1	2_0.gif
197.004	1	1	0	1	0.412	1	1	1_0.gif
198.004	1	4	0	4	0.501	4	1	4_0.gif
199.004	1	1	0	1	0.599	1	1	1_0.gif
200.004	1	4	0	4	0.508	4	1	4_0.gif
201.004	1	1	0	1	0.47	1	1	1_0.gif
202.004	1	2	0	2	0.345	2	1	2_0.gif
203.004	1	1	0	1	0.423	1	1	1_0.gif
204.004	1	3	0	3	0.284	3	1	3_0.gif
205.004	1	2	0	2	0.324	2	1	2_0.gif
206.004	1	1	0	1	0.384	1	1	1_0.gif
207.004	1	2	0	2	0.384	2	1	2_0.gif
208.005	1	3	2	6	0	1	n/a	3_2.gif
209.005	1	4	2	6	0	2	n/a	4_2.gif
210.005	1	3	2	3	0.034	3	1	3_2.gif
211.005	1	4	2	4	0.003	4	1	4_2.gif
212.005	1	3	2	3	0.133	3	1	3_2.gif
213.005	1	4	2	4	0.195	4	1	4_2.gif
214.005	1	1	2	1	0.511	3	0	1_2.gif
215.005	1	4	2	6	0	4	n/a	4_2.gif
216.005	1	2	2	1	0.54	1	1	2_2.gif
217.005	1	1	2	4	0.457	4	1	1_2.gif
218.005	1	3	2	2	0.704	2	1	3_2.gif
219.005	1	1	2	1	0.334	1	1	1_2.gif
220.005	1	2	2	3	0.29	3	1	2_2.gif
221.005	1	3	2	1	0.114	1	1	3_2.gif
222.005	1	2	2	2	0.254	2	1	2_2.gif
223.005	1	4	2	3	0.02	3	1	4_2.gif
224.005	1	1	0	2	0.003	1	0	1_0.gif
225.005	1	2	0	2	0.417	2	1	2_0.gif
226.005	1	3	0	3	0.381	3	1	3_0.gif
227.005	1	4	0	4	0.474	4	1	4_0.gif
228.005	1	1	0	1	0.481	1	1	1_0.gif
229.005	1	3	0	3	0.351	3	1	3_0.gif
230.005	1	1	0	1	0.428	1	1	1_0.gif
231.005	1	2	0	2	0.289	2	1	2_0.gif
232.005	1	4	0	4	0.519	4	1	4_0.gif
233.005	1	3	0	3	0.29	3	1	3_0.gif
234.005	1	2	0	2	0.4	2	1	2_0.gif
235.005	1	1	0	1	0.27	1	1	1_0.gif
236.005	1	2	0	2	0.399	2	1	2_0.gif
237.005	1	4	0	4	0.523	4	1	4_0.gif
238.005	1	2	0	2	0.46	2	1	2_0.gif
239.005	1	4	0	4	0.461	4	1	4_0.gif
240.005	1	2	2	6	0	2	n/a	2_2.gif
241.005	1	1	2	6	0	4	n/a	1_2.gif
242.005	1	2	2	2	0.229	2	1	2_2.gif
243.005	1	1	2	1	0.147	1	1	1_2.gif
244.005	1	3	2	2	0.064	2	1	3_2.gif
245.005	1	4	2	1	0.016	1	1	4_2.gif
246.005	1	2	2	3	0.059	3	1	2_2.gif
247.005	1	1	2	4	0.005	4	1	1_2.gif
248.005	1	3	2	2	0.03	2	1	3_2.gif
249.005	1	1	2	3	0.927	1	0	1_2.gif
250.005	1	2	2	3	0.003	3	1	2_2.gif
251.005	1	3	2	1	0.003	1	1	3_2.gif
252.005	1	1	2	2	0.003	2	1	1_2.gif
253.005	1	2	2	1	0.833	3	0	2_2.gif
254.005	1	1	2	2	0.791	1	0	1_2.gif
255.005	1	4	2	1	0.92	2	0	4_2.gif
