onset	duration	nback_display	trial_type	response	response_time	correct_response	correct	stim_file
0	1	4	0	6	0	4	n/a	4_0.gif
1	1	3	0	4	0.265	3	0	3_0.gif
2	1	4	0	4	0.537	4	1	4_0.gif
3	1	3	0	3	0.386	3	1	3_0.gif
4	1	1	0	1	0.451	1	1	1_0.gif
5	1	3	0	3	0.38	3	1	3_0.gif
6	1	2	0	2	0.371	2	1	2_0.gif
7	1	1	0	1	0.445	1	1	1_0.gif
8	1	3	0	3	0.41	3	1	3_0.gif
9	1	1	0	1	0.505	1	1	1_0.gif
10	1	2	0	2	0.369	2	1	2_0.gif
11	1	3	0	3	0.397	3	1	3_0.gif
12	1	2	0	2	0.42	2	1	2_0.gif
13	1	3	0	3	0.43	3	1	3_0.gif
14	1	2	0	2	0.446	2	1	2_0.gif
15	1	1	0	1	0.457	1	1	1_0.gif
16	1	3	2	6	0	2	n/a	3_2.gif
17	1	2	2	6	0	1	n/a	2_2.gif
18	1	4	2	3	0.189	3	1	4_2.gif
19	1	1	2	2	0.003	2	1	1_2.gif
20	1	3	2	1	0.773	4	0	3_2.gif
21	1	1	2	3	0.81	1	0	1_2.gif
22	1	2	2	1	0.778	3	0	2_2.gif
23	1	1	2	2	0.644	1	0	1_2.gif
24	1	2	2	1	0.623	2	0	2_2.gif
25	1	3	2	2	0.728	1	0	3_2.gif
26	1	1	2	3	0.735	2	0	1_2.gif
27	1	3	2	3	0.861	3	1	3_2.gif
28	1	2	2	3	0.003	1	0	2_2.gif
29	1	1	2	6	0	3	n/a	1_2.gif
30	1	2	2	2	0.198	2	1	2_2.gif
31	1	3	2	1	0.201	1	1	3_2.gif
32	1	1	0	3	0.357	1	0	1_0.gif
33	1	2	0	6	0	2	n/a	2_0.gif
34	1	1	0	1	0.376	1	1	1_0.gif
35	1	3	0	3	0.336	3	1	3_0.gif
36	1	4	0	4	0.516	4	1	4_0.gif
37	1	1	0	1	0.346	1	1	1_0.gif
38	1	3	0	3	0.359	3	1	3_0.gif
39	1	1	0	1	0.365	1	1	1_0.gif
40	1	2	0	2	0.412	2	1	2_0.gif
41	1	3	0	3	0.375	3	1	3_0.gif
42	1	1	0	1	0.342	1	1	1_0.gif
43	1	2	0	2	0.412	2	1	2_0.gif
44	1	3	0	3	0.453	3	1	3_0.gif
45	1	2	0	2	0.397	2	1	2_0.gif
46	1	1	0	1	0.42	1	1	1_0.gif
47	1	4	0	4	0.545	4	1	4_0.gif
48.001	1	1	2	6	0	1	n/a	1_2.gif
49.001	1	4	2	6	0	4	n/a	4_2.gif
50.001	1	3	2	1	0.259	1	1	3_2.gif
51.001	1	2	2	4	0.213	4	1	2_2.gif
52.001	1	3	2	3	0.223	3	1	3_2.gif
53.001	1	4	2	2	0.319	2	1	4_2.gif
54.001	1	3	2	4	0.333	3	0	3_2.gif
55.001	1	2	2	3	0.323	4	0	2_2.gif
56.001	1	4	2	2	0.345	3	0	4_2.gif
57.001	1	2	2	4	0.268	2	0	2_2.gif
58.001	1	1	2	2	0.319	4	0	1_2.gif
59.001	1	3	2	1	0.309	2	0	3_2.gif
60.001	1	2	2	3	0.348	1	0	2_2.gif
61.001	1	3	2	2	0.336	3	0	3_2.gif
62.001	1	4	2	3	0.317	2	0	4_2.gif
63.001	1	2	2	4	0.255	3	0	2_2.gif
64.001	1	3	0	2	0.231	3	0	3_0.gif
65.001	1	4	0	4	0.885	4	1	4_0.gif
66.001	1	2	0	4	0.006	2	0	2_0.gif
67.001	1	4	0	4	0.501	4	1	4_0.gif
68.001	1	3	0	3	0.388	3	1	3_0.gif
69.001	1	2	0	2	0.385	2	1	2_0.gif
70.001	1	1	0	1	0.41	1	1	1_0.gif
71.001	1	2	0	2	0.401	2	1	2_0.gif
72.001	1	4	0	4	0.385	4	1	4_0.gif
73.001	1	3	0	3	0.367	3	1	3_0.gif
74.001	1	2	0	2	0.338	2	1	2_0.gif
75.001	1	1	0	1	0.328	1	1	1_0.gif
76.001	1	2	0	2	0.392	2	1	2_0.gif
77.001	1	1	0	1	0.508	1	1	1_0.gif
78.001	1	2	0	2	0.375	2	1	2_0.gif
79.001	1	1	0	1	0.455	1	1	1_0.gif
80.001	1	3	2	6	0	2	n/a	3_2.gif
81.001	1	2	2	6	0	1	n/a	2_2.gif
82.001	1	4	2	3	0.196	3	1	4_2.gif
83.001	1	2	2	2	0.041	2	1	2_2.gif
84.001	1	3	2	4	0.041	4	1	3_2.gif
85.001	1	4	2	2	0.003	2	1	4_2.gif
86.001	1	1	2	3	0.004	3	1	1_2.gif
87.001	1	2	2	4	0.003	4	1	2_2.gif
88.001	1	1	2	1	0.004	1	1	1_2.gif
89.001	1	3	2	2	0.003	2	1	3_2.gif
90.001	1	4	2	3	0.003	1	0	4_2.gif
91.001	1	3	2	4	0.253	3	0	3_2.gif
92.001	1	2	2	3	0.254	4	0	2_2.gif
93.001	1	1	2	2	0.504	3	0	1_2.gif
94.001	1	2	2	1	0.484	2	0	2_2.gif
95.001	1	3	2	2	0.43	1	0	3_2.gif
96.002	1	1	0	1	0.677	1	1	1_0.gif
97.002	1	2	0	2	0.444	2	1	2_0.gif
98.002	1	4	0	4	0.376	4	1	4_0.gif
99.002	1	2	0	2	0.469	2	1	2_0.gif
100.002	1	3	0	3	0.428	3	1	3_0.gif
101.002	1	1	0	1	0.493	1	1	1_0.gif
102.002	1	3	0	3	0.444	3	1	3_0.gif
103.002	1	1	0	1	0.427	1	1	1_0.gif
104.002	1	3	0	4	0.484	3	0	3_0.gif
105.002	1	1	0	1	0.548	1	1	1_0.gif
106.002	1	2	0	2	0.349	2	1	2_0.gif
107.002	1	1	0	1	0.459	1	1	1_0.gif
108.002	1	2	0	2	0.392	2	1	2_0.gif
109.002	1	1	0	1	0.396	1	1	1_0.gif
110.002	1	3	0	3	0.448	3	1	3_0.gif
111.002	1	2	0	2	0.429	2	1	2_0.gif
112.003	1	3	2	6	0	3	n/a	3_2.gif
113.003	1	2	2	6	0	2	n/a	2_2.gif
114.003	1	1	2	3	0.191	3	1	1_2.gif
115.003	1	2	2	2	0.1	2	1	2_2.gif
116.003	1	3	2	1	0.118	1	1	3_2.gif
117.003	1	2	2	2	0.127	2	1	2_2.gif
118.003	1	1	2	3	0.028	3	1	1_2.gif
119.003	1	3	2	2	0.061	2	1	3_2.gif
120.003	1	2	2	1	0.126	1	1	2_2.gif
121.003	1	4	2	3	0.163	3	1	4_2.gif
122.003	1	2	2	2	0.125	2	1	2_2.gif
123.003	1	4	2	4	0.11	4	1	4_2.gif
124.003	1	2	2	2	0.217	2	1	2_2.gif
125.003	1	4	2	4	0.287	4	1	4_2.gif
126.003	1	1	2	2	0.275	2	1	1_2.gif
127.003	1	2	2	4	0.173	4	1	2_2.gif
128.003	1	3	0	1	0.128	3	0	3_0.gif
129.003	1	1	0	3	0.004	1	0	1_0.gif
130.003	1	4	0	4	0.474	4	1	4_0.gif
131.003	1	2	0	2	0.345	2	1	2_0.gif
132.003	1	1	0	1	0.381	1	1	1_0.gif
133.003	1	3	0	3	0.396	3	1	3_0.gif
134.003	1	1	0	1	0.425	1	1	1_0.gif
135.003	1	4	0	4	0.574	4	1	4_0.gif
136.003	1	2	0	2	0.393	2	1	2_0.gif
137.003	1	3	0	3	0.431	3	1	3_0.gif
138.003	1	2	0	2	0.389	2	1	2_0.gif
139.003	1	1	0	1	0.436	1	1	1_0.gif
140.003	1	2	0	2	0.404	2	1	2_0.gif
141.003	1	3	0	3	0.378	3	1	3_0.gif
142.003	1	2	0	2	0.361	2	1	2_0.gif
143.003	1	4	0	4	0.552	4	1	4_0.gif
144.004	1	1	2	6	0	2	n/a	1_2.gif
145.004	1	3	2	6	0	4	n/a	3_2.gif
146.004	1	4	2	1	0.138	1	1	4_2.gif
147.004	1	1	2	3	0.102	3	1	1_2.gif
148.004	1	3	2	4	0.085	4	1	3_2.gif
149.004	1	4	2	1	0.057	1	1	4_2.gif
150.004	1	3	2	3	0.011	3	1	3_2.gif
151.004	1	1	2	4	0.003	4	1	1_2.gif
152.004	1	2	2	3	0.029	3	1	2_2.gif
153.004	1	3	2	1	0.003	1	1	3_2.gif
154.004	1	2	2	2	0.015	2	1	2_2.gif
155.004	1	3	2	3	0.067	3	1	3_2.gif
156.004	1	2	2	2	0.062	2	1	2_2.gif
157.004	1	4	2	3	0.276	3	1	4_2.gif
158.004	1	3	2	2	0.17	2	1	3_2.gif
159.004	1	4	2	4	0.141	4	1	4_2.gif
160.004	1	3	0	3	0.149	3	1	3_0.gif
161.004	1	1	0	1	0.383	1	1	1_0.gif
162.004	1	2	0	2	0.334	2	1	2_0.gif
163.004	1	4	0	4	0.359	4	1	4_0.gif
164.004	1	2	0	2	0.322	2	1	2_0.gif
165.004	1	3	0	3	0.31	3	1	3_0.gif
166.004	1	1	0	1	0.279	1	1	1_0.gif
167.004	1	3	0	3	0.322	3	1	3_0.gif
168.004	1	1	0	1	0.357	1	1	1_0.gif
169.004	1	3	0	3	0.344	3	1	3_0.gif
170.004	1	4	0	4	0.466	4	1	4_0.gif
171.004	1	1	0	1	0.332	1	1	1_0.gif
172.004	1	2	0	2	0.357	2	1	2_0.gif
173.004	1	1	0	1	0.373	1	1	1_0.gif
174.004	1	3	0	3	0.426	3	1	3_0.gif
175.004	1	4	0	4	0.438	4	1	4_0.gif
176.005	1	3	2	3	0.797	3	1	3_2.gif
177.005	1	4	2	6	0	4	n/a	4_2.gif
178.006	1	2	2	3	0.476	3	1	2_2.gif
179.006	1	3	2	4	0.276	4	1	3_2.gif
180.006	1	1	2	2	0.273	2	1	1_2.gif
181.006	1	3	2	3	0.217	3	1	3_2.gif
182.006	1	4	2	1	0.137	1	1	4_2.gif
183.006	1	2	2	3	0.124	3	1	2_2.gif
184.006	1	4	2	4	0.005	4	1	4_2.gif
185.006	1	3	2	2	0.003	2	1	3_2.gif
186.006	1	1	2	4	0.02	4	1	1_2.gif
187.006	1	4	2	3	0.019	3	1	4_2.gif
188.006	1	3	2	1	0.003	1	1	3_2.gif
189.006	1	4	2	4	0.003	4	1	4_2.gif
190.006	1	3	2	3	0.003	3	1	3_2.gif
191.006	1	1	2	4	0.003	4	1	1_2.gif
192.007	1	3	0	3	0.003	3	1	3_0.gif
193.007	1	2	0	2	0.314	2	1	2_0.gif
194.007	1	1	0	1	0.24	1	1	1_0.gif
195.007	1	3	0	3	0.3	3	1	3_0.gif
196.007	1	1	0	1	0.376	1	1	1_0.gif
197.007	1	2	0	2	0.328	2	1	2_0.gif
198.007	1	3	0	3	0.341	3	1	3_0.gif
199.007	1	2	0	2	0.329	2	1	2_0.gif
200.007	1	3	0	3	0.371	3	1	3_0.gif
201.007	1	2	0	2	0.4	2	1	2_0.gif
202.007	1	1	0	1	0.388	1	1	1_0.gif
203.007	1	3	0	3	0.402	3	1	3_0.gif
204.007	1	2	0	2	0.391	2	1	2_0.gif
205.007	1	4	0	4	0.487	4	1	4_0.gif
206.007	1	1	0	1	0.383	1	1	1_0.gif
207.007	1	3	0	3	0.389	3	1	3_0.gif
208.007	1	1	2	1	0.598	1	1	1_2.gif
209.007	1	2	2	6	0	3	n/a	2_2.gif
210.007	1	1	2	1	0.219	1	1	1_2.gif
211.007	1	2	2	2	0.201	2	1	2_2.gif
212.007	1	3	2	1	0.163	1	1	3_2.gif
213.007	1	1	2	2	0.083	2	1	1_2.gif
214.007	1	3	2	3	0.031	3	1	3_2.gif
215.007	1	2	2	1	0.003	1	1	2_2.gif
216.007	1	1	2	3	0.003	3	1	1_2.gif
217.007	1	2	2	2	0.004	2	1	2_2.gif
218.007	1	3	2	1	0.003	1	1	3_2.gif
219.007	1	1	2	2	0.054	2	1	1_2.gif
220.007	1	2	2	3	0.061	3	1	2_2.gif
221.007	1	1	2	1	0.004	1	1	1_2.gif
222.007	1	3	2	2	0.003	2	1	3_2.gif
223.007	1	4	2	1	0.004	1	1	4_2.gif
224.008	1	1	0	2	0.003	1	0	1_0.gif
225.008	1	3	0	6	0	3	n/a	3_0.gif
226.008	1	1	0	1	0.345	1	1	1_0.gif
227.008	1	2	0	2	0.316	2	1	2_0.gif
228.008	1	3	0	3	0.302	3	1	3_0.gif
229.008	1	1	0	1	0.29	1	1	1_0.gif
230.008	1	2	0	2	0.303	2	1	2_0.gif
231.008	1	3	0	3	0.326	3	1	3_0.gif
232.008	1	2	0	2	0.313	2	1	2_0.gif
233.008	1	1	0	1	0.325	1	1	1_0.gif
234.008	1	4	0	4	0.456	4	1	4_0.gif
235.008	1	1	0	1	0.413	1	1	1_0.gif
236.008	1	4	0	4	0.57	4	1	4_0.gif
237.008	1	3	0	3	0.393	3	1	3_0.gif
238.008	1	2	0	2	0.348	2	1	2_0.gif
239.008	1	3	0	3	0.344	3	1	3_0.gif
240.009	1	4	2	6	0	2	n/a	4_2.gif
241.009	1	3	2	6	0	3	n/a	3_2.gif
242.009	1	2	2	4	0.143	4	1	2_2.gif
243.009	1	4	2	3	0.007	3	1	4_2.gif
244.009	1	2	2	2	0.003	2	1	2_2.gif
245.009	1	1	2	4	0.003	4	1	1_2.gif
246.009	1	3	2	2	0.003	2	1	3_2.gif
247.009	1	2	2	1	0.005	1	1	2_2.gif
248.009	1	3	2	3	0.003	3	1	3_2.gif
249.009	1	4	2	2	0.003	2	1	4_2.gif
250.009	1	2	2	3	0.003	3	1	2_2.gif
251.009	1	3	2	2	0.965	4	0	3_2.gif
252.009	1	4	2	2	0.003	2	1	4_2.gif
253.009	1	2	2	3	0.003	3	1	2_2.gif
254.009	1	4	2	4	0.003	4	1	4_2.gif
255.009	1	3	2	2	0.003	2	1	3_2.gif
