onset	duration	nback_display	trial_type	response	response_time	correct_response	correct	stim_file
0	1	4	0	n/a	n/a	n/a	n/a	4_0.gif
1	1	3	0	4	0.268	3	0	3_0.gif
2	1	4	0	3	0.003	4	0	4_0.gif
3	1	3	0	4	0.003	3	0	3_0.gif
4	1	4	0	4	0.65	4	1	4_0.gif
5	1	1	0	1	0.444	1	1	1_0.gif
6	1	4	0	4	0.608	4	1	4_0.gif
7	1	3	0	3	0.437	3	1	3_0.gif
8	1	2	0	2	0.422	2	1	2_0.gif
9	1	4	0	4	0.626	4	1	4_0.gif
10	1	2	0	2	0.527	2	1	2_0.gif
11	1	3	0	3	0.362	3	1	3_0.gif
12	1	2	0	2	0.434	2	1	2_0.gif
13	1	1	0	1	0.443	1	1	1_0.gif
14	1	4	0	4	0.617	4	1	4_0.gif
15	1	1	0	1	0.491	1	1	1_0.gif
16	1	2	2	n/a	n/a	n/a	n/a	2_2.gif
17	1	3	2	n/a	n/a	n/a	n/a	3_2.gif
18	1	2	2	2	0.242	2	1	2_2.gif
19	1	1	2	3	0.106	3	1	1_2.gif
20	1	3	2	2	0.237	2	1	3_2.gif
21	1	4	2	1	0.211	1	1	4_2.gif
22	1	2	2	3	0.115	3	1	2_2.gif
23	1	1	2	4	0.216	4	1	1_2.gif
24	1	3	2	2	0.291	2	1	3_2.gif
25	1	1	2	1	0.338	1	1	1_2.gif
26	1	2	2	3	0.343	3	1	2_2.gif
27	1	4	2	1	0.252	1	1	4_2.gif
28	1	1	2	2	0.264	2	1	1_2.gif
29	1	3	2	4	0.153	4	1	3_2.gif
30	1	2	2	1	0.221	1	1	2_2.gif
31	1	1	2	3	0.034	3	1	1_2.gif
32.001	1	3	0	2	0.27	3	0	3_0.gif
33.001	1	1	0	1	0.68	1	1	1_0.gif
34.001	1	3	0	3	0.442	3	1	3_0.gif
35.001	1	4	0	4	0.666	4	1	4_0.gif
36.001	1	2	0	2	0.422	2	1	2_0.gif
37.001	1	3	0	3	0.478	3	1	3_0.gif
38.001	1	2	0	2	0.428	2	1	2_0.gif
39.001	1	1	0	1	0.493	1	1	1_0.gif
40.001	1	3	0	3	0.416	3	1	3_0.gif
41.001	1	2	0	2	0.339	2	1	2_0.gif
42.001	1	1	0	1	0.288	1	1	1_0.gif
43.001	1	4	0	4	0.802	4	1	4_0.gif
44.001	1	2	0	4	0.003	2	0	2_0.gif
45.001	1	3	0	3	0.419	3	1	3_0.gif
46.001	1	1	0	1	0.351	1	1	1_0.gif
47.001	1	4	0	4	0.772	4	1	4_0.gif
48.001	1	3	2	n/a	n/a	n/a	n/a	3_2.gif
49.001	1	1	2	n/a	n/a	n/a	n/a	1_2.gif
50.001	1	3	2	3	0.289	3	1	3_2.gif
51.001	1	4	2	1	0.206	1	1	4_2.gif
52.001	1	3	2	3	0.222	3	1	3_2.gif
53.001	1	1	2	4	0.275	4	1	1_2.gif
54.001	1	4	2	3	0.251	3	1	4_2.gif
55.001	1	3	2	1	0.17	1	1	3_2.gif
56.001	1	1	2	4	0.26	4	1	1_2.gif
57.001	1	4	2	3	0.161	3	1	4_2.gif
58.001	1	2	2	1	0.127	1	1	2_2.gif
59.001	1	4	2	4	0.069	4	1	4_2.gif
60.001	1	1	2	2	0.12	2	1	1_2.gif
61.001	1	3	2	4	0.094	4	1	3_2.gif
62.001	1	2	2	1	0.088	1	1	2_2.gif
63.001	1	1	2	3	0.003	3	1	1_2.gif
64.001	1	4	0	2	0.419	4	0	4_0.gif
65.001	1	1	0	4	0.003	1	0	1_0.gif
66.001	1	3	0	1	0.003	3	0	3_0.gif
67.001	1	2	0	2	0.838	2	1	2_0.gif
68.001	1	3	0	2	0.003	3	0	3_0.gif
69.001	1	1	0	1	0.633	1	1	1_0.gif
70.001	1	4	0	4	0.484	4	1	4_0.gif
71.001	1	2	0	2	0.617	2	1	2_0.gif
72.001	1	3	0	3	0.483	3	1	3_0.gif
73.001	1	1	0	1	0.379	1	1	1_0.gif
74.001	1	3	0	3	0.491	3	1	3_0.gif
75.001	1	4	0	4	0.662	4	1	4_0.gif
76.001	1	3	0	3	0.455	3	1	3_0.gif
77.001	1	1	0	1	0.454	1	1	1_0.gif
78.001	1	2	0	n/a	n/a	n/a	n/a	2_0.gif
79.001	1	3	0	3	0.393	3	1	3_0.gif
80.002	1	2	2	n/a	n/a	n/a	n/a	2_2.gif
81.002	1	4	2	n/a	n/a	n/a	n/a	4_2.gif
82.002	1	1	2	2	0.288	2	1	1_2.gif
83.002	1	2	2	4	0.215	4	1	2_2.gif
84.002	1	1	2	1	0.28	1	1	1_2.gif
85.002	1	4	2	2	0.436	2	1	4_2.gif
86.002	1	2	2	1	0.284	1	1	2_2.gif
87.002	1	4	2	4	0.03	4	1	4_2.gif
88.002	1	2	2	2	0.199	2	1	2_2.gif
89.002	1	3	2	4	0.211	4	1	3_2.gif
90.002	1	1	2	2	0.162	2	1	1_2.gif
91.002	1	4	2	3	0.215	3	1	4_2.gif
92.002	1	3	2	1	0.315	1	1	3_2.gif
93.002	1	1	2	4	0.436	4	1	1_2.gif
94.002	1	2	2	3	0.36	3	1	2_2.gif
95.002	1	3	2	1	0.303	1	1	3_2.gif
96.002	1	1	0	2	0.323	1	0	1_0.gif
97.002	1	2	0	2	0.743	2	1	2_0.gif
98.002	1	3	0	3	0.47	3	1	3_0.gif
99.002	1	2	0	2	0.437	2	1	2_0.gif
100.002	1	4	0	4	0.686	4	1	4_0.gif
101.002	1	1	0	1	0.474	1	1	1_0.gif
102.002	1	3	0	3	0.456	3	1	3_0.gif
103.002	1	4	0	4	0.527	4	1	4_0.gif
104.002	1	2	0	2	0.516	2	1	2_0.gif
105.002	1	4	0	4	0.715	4	1	4_0.gif
106.002	1	2	0	2	0.462	2	1	2_0.gif
107.002	1	4	0	4	0.722	4	1	4_0.gif
108.002	1	1	0	1	0.66	1	1	1_0.gif
109.002	1	3	0	3	0.513	3	1	3_0.gif
110.002	1	1	0	1	0.81	1	1	1_0.gif
111.002	1	2	0	1	0.003	2	0	2_0.gif
112.002	1	3	2	n/a	n/a	n/a	n/a	3_2.gif
113.002	1	2	2	n/a	n/a	n/a	n/a	2_2.gif
114.002	1	4	2	3	0.287	3	1	4_2.gif
115.002	1	2	2	2	0.028	2	1	2_2.gif
116.002	1	3	2	4	0.004	4	1	3_2.gif
117.002	1	4	2	2	0.003	2	1	4_2.gif
118.002	1	3	2	3	0.331	3	1	3_2.gif
119.002	1	4	2	4	0.149	4	1	4_2.gif
120.002	1	1	2	3	0.094	3	1	1_2.gif
121.002	1	3	2	4	0.028	4	1	3_2.gif
122.002	1	2	2	1	0.075	1	1	2_2.gif
123.002	1	4	2	3	0.274	3	1	4_2.gif
124.002	1	2	2	2	0.204	2	1	2_2.gif
125.002	1	1	2	4	0.236	4	1	1_2.gif
126.002	1	4	2	2	0.004	2	1	4_2.gif
127.002	1	2	2	1	0.085	1	1	2_2.gif
128.003	1	3	0	4	0.003	3	0	3_0.gif
129.003	1	4	0	4	0.701	4	1	4_0.gif
130.003	1	1	0	1	0.568	1	1	1_0.gif
131.003	1	4	0	4	0.662	4	1	4_0.gif
132.003	1	3	0	3	0.429	3	1	3_0.gif
133.003	1	2	0	2	0.381	2	1	2_0.gif
134.003	1	3	0	3	0.633	3	1	3_0.gif
135.003	1	1	0	1	0.464	1	1	1_0.gif
136.003	1	2	0	2	0.432	2	1	2_0.gif
137.003	1	4	0	4	0.814	4	1	4_0.gif
138.003	1	2	0	4	0.003	2	0	2_0.gif
139.003	1	3	0	3	0.45	3	1	3_0.gif
140.003	1	2	0	2	0.361	2	1	2_0.gif
141.003	1	4	0	4	0.607	4	1	4_0.gif
142.003	1	1	0	1	0.495	1	1	1_0.gif
143.003	1	4	0	4	0.512	4	1	4_0.gif
144.003	1	2	2	n/a	n/a	n/a	n/a	2_2.gif
145.003	1	3	2	n/a	n/a	n/a	n/a	3_2.gif
146.003	1	4	2	2	0.222	2	1	4_2.gif
147.003	1	3	2	3	0.227	3	1	3_2.gif
148.003	1	4	2	4	0.198	4	1	4_2.gif
149.003	1	2	2	3	0.172	3	1	2_2.gif
150.003	1	3	2	4	0.195	4	1	3_2.gif
151.003	1	1	2	2	0.109	2	1	1_2.gif
152.003	1	4	2	3	0.032	3	1	4_2.gif
153.003	1	1	2	1	0.057	1	1	1_2.gif
154.003	1	3	2	4	0.127	4	1	3_2.gif
155.003	1	1	2	1	0.174	1	1	1_2.gif
156.003	1	3	2	3	0.134	3	1	3_2.gif
157.003	1	1	2	1	0.068	1	1	1_2.gif
158.003	1	3	2	3	0.029	3	1	3_2.gif
159.003	1	2	2	1	0.066	1	1	2_2.gif
160.003	1	4	0	3	0.101	4	0	4_0.gif
161.003	1	1	0	4	0.162	1	0	1_0.gif
162.003	1	4	0	1	0.003	4	0	4_0.gif
163.003	1	1	0	4	0.003	1	0	1_0.gif
164.003	1	3	0	3	0.458	3	1	3_0.gif
165.003	1	4	0	4	0.615	4	1	4_0.gif
166.003	1	2	0	2	0.57	2	1	2_0.gif
167.003	1	4	0	4	0.666	4	1	4_0.gif
168.003	1	1	0	1	0.633	1	1	1_0.gif
169.003	1	4	0	4	0.583	4	1	4_0.gif
170.003	1	3	0	3	0.538	3	1	3_0.gif
171.003	1	2	0	2	0.518	2	1	2_0.gif
172.003	1	1	0	1	0.446	1	1	1_0.gif
173.003	1	4	0	4	0.567	4	1	4_0.gif
174.003	1	3	0	3	0.437	3	1	3_0.gif
175.003	1	4	0	4	0.731	4	1	4_0.gif
176.004	1	3	2	n/a	n/a	n/a	n/a	3_2.gif
177.004	1	4	2	n/a	n/a	n/a	n/a	4_2.gif
178.004	1	3	2	3	0.325	3	1	3_2.gif
179.004	1	2	2	4	0.287	4	1	2_2.gif
180.004	1	3	2	3	0.23	3	1	3_2.gif
181.004	1	1	2	2	0.096	2	1	1_2.gif
182.004	1	3	2	3	0.037	3	1	3_2.gif
183.004	1	2	2	1	0.031	1	1	2_2.gif
184.004	1	3	2	3	0.198	3	1	3_2.gif
185.004	1	2	2	2	0.132	2	1	2_2.gif
186.004	1	1	2	3	0.003	3	1	1_2.gif
187.004	1	3	2	2	0.122	2	1	3_2.gif
188.004	1	2	2	1	0.197	1	1	2_2.gif
189.004	1	4	2	3	0.003	3	1	4_2.gif
190.004	1	3	2	2	0.003	2	1	3_2.gif
191.004	1	4	2	4	0.052	4	1	4_2.gif
192.004	1	3	0	3	0.231	3	1	3_0.gif
193.004	1	4	0	3	0.532	4	0	4_0.gif
194.004	1	1	0	4	0.003	1	0	1_0.gif
195.004	1	4	0	4	0.55	4	1	4_0.gif
196.004	1	3	0	3	0.552	3	1	3_0.gif
197.004	1	2	0	2	0.515	2	1	2_0.gif
198.004	1	4	0	4	0.597	4	1	4_0.gif
199.004	1	2	0	2	0.537	2	1	2_0.gif
200.004	1	3	0	3	0.533	3	1	3_0.gif
201.004	1	2	0	2	0.447	2	1	2_0.gif
202.004	1	1	0	1	0.505	1	1	1_0.gif
203.004	1	4	0	4	0.665	4	1	4_0.gif
204.004	1	1	0	1	0.525	1	1	1_0.gif
205.004	1	2	0	2	0.618	2	1	2_0.gif
206.004	1	3	0	3	0.474	3	1	3_0.gif
207.004	1	2	0	2	0.413	2	1	2_0.gif
208.004	1	1	2	n/a	n/a	n/a	n/a	1_2.gif
209.004	1	3	2	n/a	n/a	n/a	n/a	3_2.gif
210.004	1	4	2	1	0.268	1	1	4_2.gif
211.004	1	2	2	3	0.157	3	1	2_2.gif
212.004	1	1	2	4	0.09	4	1	1_2.gif
213.004	1	3	2	2	0.115	2	1	3_2.gif
214.004	1	1	2	1	0.301	1	1	1_2.gif
215.004	1	2	2	3	0.056	3	1	2_2.gif
216.004	1	4	2	1	0.003	1	1	4_2.gif
217.004	1	1	2	4	0.883	2	0	1_2.gif
218.004	1	3	2	4	0.003	4	1	3_2.gif
219.004	1	2	2	3	0.984	1	0	2_2.gif
220.004	1	1	2	3	0.003	3	1	1_2.gif
221.004	1	3	2	n/a	n/a	n/a	n/a	3_2.gif
222.004	1	1	2	1	0.455	1	1	1_2.gif
223.004	1	3	2	3	0.133	3	1	3_2.gif
224.005	1	4	0	1	0.145	4	0	4_0.gif
225.005	1	2	0	2	0.733	2	1	2_0.gif
226.005	1	3	0	3	0.624	3	1	3_0.gif
227.005	1	2	0	2	0.419	2	1	2_0.gif
228.005	1	1	0	1	0.58	1	1	1_0.gif
229.005	1	3	0	3	0.383	3	1	3_0.gif
230.005	1	2	0	2	0.479	2	1	2_0.gif
231.005	1	1	0	1	0.425	1	1	1_0.gif
232.005	1	4	0	4	0.697	4	1	4_0.gif
233.005	1	2	0	2	0.462	2	1	2_0.gif
234.005	1	3	0	3	0.473	3	1	3_0.gif
235.005	1	1	0	1	0.561	1	1	1_0.gif
236.005	1	4	0	4	0.521	4	1	4_0.gif
237.005	1	3	0	3	0.46	3	1	3_0.gif
238.005	1	1	0	1	0.534	1	1	1_0.gif
239.005	1	3	0	3	0.413	3	1	3_0.gif
240.005	1	4	2	n/a	n/a	n/a	n/a	4_2.gif
241.005	1	3	2	n/a	n/a	n/a	n/a	3_2.gif
242.005	1	1	2	4	0.418	4	1	1_2.gif
243.005	1	4	2	3	0.338	3	1	4_2.gif
244.005	1	3	2	1	0.316	1	1	3_2.gif
245.005	1	1	2	4	0.078	4	1	1_2.gif
246.005	1	4	2	3	0.321	3	1	4_2.gif
247.005	1	2	2	1	0.066	1	1	2_2.gif
248.005	1	4	2	4	0.247	4	1	4_2.gif
249.005	1	1	2	2	0.003	2	1	1_2.gif
250.005	1	3	2	1	0.467	4	0	3_2.gif
251.005	1	2	2	3	0.356	1	0	2_2.gif
252.005	1	1	2	n/a	n/a	n/a	n/a	1_2.gif
253.005	1	4	2	2	0.322	2	1	4_2.gif
254.005	1	1	2	1	0.003	1	1	1_2.gif
255.005	1	3	2	4	0.003	4	1	3_2.gif
