onset	duration	nback_display	trial_type	response	response_time	correct_response	correct	stim_file
0	1	4	0	4	0.997	4	1	4_0.gif
1.003	1	2	0	4	0.014	2	0	2_0.gif
2.003	1	4	0	2	0.031	4	0	4_0.gif
3.003	1	3	0	3	0.632	3	1	3_0.gif
4.003	1	4	0	4	0.522	4	1	4_0.gif
5.003	1	1	0	1	0.517	1	1	1_0.gif
6.003	1	3	0	6	0	3	n/a	3_0.gif
7.003	1	2	0	2	0.42	2	1	2_0.gif
8.003	1	1	0	1	0.591	1	1	1_0.gif
9.003	1	3	0	3	0.474	3	1	3_0.gif
10.003	1	1	0	1	0.536	1	1	1_0.gif
11.003	1	2	0	2	0.428	2	1	2_0.gif
12.003	1	3	0	3	0.407	3	1	3_0.gif
13.003	1	2	0	2	0.552	2	1	2_0.gif
14.003	1	3	0	3	0.413	3	1	3_0.gif
15.003	1	2	0	2	0.382	2	1	2_0.gif
16.003	1	3	2	6	0	3	n/a	3_2.gif
17.003	1	2	2	6	0	2	n/a	2_2.gif
18.003	1	1	2	3	0.019	3	1	1_2.gif
19.003	1	2	2	2	0.253	2	1	2_2.gif
20.003	1	1	2	1	0.039	1	1	1_2.gif
21.003	1	2	2	2	0.014	2	1	2_2.gif
22.003	1	4	2	1	0.014	1	1	4_2.gif
23.003	1	1	2	2	0.014	2	1	1_2.gif
24.003	1	4	2	4	0.014	4	1	4_2.gif
25.003	1	3	2	4	0.472	1	0	3_2.gif
26.003	1	2	2	3	0.528	4	0	2_2.gif
27.003	1	1	2	2	0.268	3	0	1_2.gif
28.003	1	2	2	1	0.22	2	0	2_2.gif
29.003	1	3	2	3	0.562	1	0	3_2.gif
30.003	1	1	2	6	0	2	n/a	1_2.gif
31.004	1	2	2	3	0.217	3	1	2_2.gif
32.004	1	3	0	1	0.13	3	0	3_0.gif
33.004	1	4	0	4	0.816	4	1	4_0.gif
34.004	1	1	0	4	0.014	1	0	1_0.gif
35.004	1	2	0	2	0.666	2	1	2_0.gif
36.004	1	3	0	3	0.475	3	1	3_0.gif
37.004	1	4	0	4	0.438	4	1	4_0.gif
38.004	1	3	0	3	0.424	3	1	3_0.gif
39.004	1	4	0	4	0.404	4	1	4_0.gif
40.004	1	2	0	2	0.508	2	1	2_0.gif
41.004	1	4	0	4	0.566	4	1	4_0.gif
42.004	1	2	0	2	0.471	2	1	2_0.gif
43.004	1	3	0	3	0.364	3	1	3_0.gif
44.004	1	2	0	2	0.362	2	1	2_0.gif
45.004	1	1	0	1	0.556	1	1	1_0.gif
46.004	1	4	0	4	0.542	4	1	4_0.gif
47.004	1	2	0	2	0.358	2	1	2_0.gif
48.005	1	4	2	6	0	4	n/a	4_2.gif
49.005	1	2	2	6	0	2	n/a	2_2.gif
50.005	1	4	2	4	0.375	4	1	4_2.gif
51.005	1	1	2	2	0.344	2	1	1_2.gif
52.005	1	4	2	4	0.545	4	1	4_2.gif
53.005	1	3	2	1	0.34	1	1	3_2.gif
54.005	1	1	2	3	0.211	4	0	1_2.gif
55.005	1	2	2	1	0.246	3	0	2_2.gif
56.005	1	3	2	2	0.981	1	0	3_2.gif
57.005	1	1	2	2	0.013	2	1	1_2.gif
58.005	1	3	2	3	0.014	3	1	3_2.gif
59.005	1	4	2	3	0.015	1	0	4_2.gif
60.005	1	2	2	1	0.691	3	0	2_2.gif
61.005	1	4	2	2	0.646	4	0	4_2.gif
62.005	1	1	2	2	0.013	2	1	1_2.gif
63.005	1	3	2	3	0.437	4	0	3_2.gif
64.006	1	1	0	3	0.013	1	0	1_0.gif
65.006	1	2	0	1	0.402	2	0	2_0.gif
66.006	1	3	0	2	0.204	3	0	3_0.gif
67.006	1	2	0	2	0.556	2	1	2_0.gif
68.006	1	4	0	4	0.434	4	1	4_0.gif
69.006	1	1	0	1	0.519	1	1	1_0.gif
70.006	1	3	0	3	0.405	3	1	3_0.gif
71.006	1	2	0	2	0.509	2	1	2_0.gif
72.006	1	3	0	3	0.398	3	1	3_0.gif
73.006	1	2	0	2	0.426	2	1	2_0.gif
74.006	1	4	0	4	0.479	4	1	4_0.gif
75.006	1	2	0	2	0.481	2	1	2_0.gif
76.006	1	3	0	3	0.522	3	1	3_0.gif
77.006	1	2	0	3	0.013	2	0	2_0.gif
78.006	1	1	0	1	0.841	1	1	1_0.gif
79.006	1	2	0	1	0.013	2	0	2_0.gif
80.006	1	1	2	6	0	1	n/a	1_2.gif
81.006	1	2	2	6	0	2	n/a	2_2.gif
82.006	1	4	2	1	0.544	1	1	4_2.gif
83.006	1	3	2	2	0.248	2	1	3_2.gif
84.006	1	4	2	4	0.014	4	1	4_2.gif
85.006	1	1	2	4	0.484	3	0	1_2.gif
86.006	1	2	2	1	0.244	4	0	2_2.gif
87.006	1	3	2	2	0.124	1	0	3_2.gif
88.006	1	4	2	3	0.259	2	0	4_2.gif
89.006	1	1	2	4	0.583	3	0	1_2.gif
90.006	1	3	2	4	0.014	4	1	3_2.gif
91.006	1	1	2	3	0.156	1	0	1_2.gif
92.006	1	2	2	1	0.215	3	0	2_2.gif
93.006	1	4	2	2	0.224	1	0	4_2.gif
94.006	1	2	2	4	0.029	2	0	2_2.gif
95.006	1	4	2	2	0.38	4	0	4_2.gif
96.012	1	3	0	3	0.894	3	1	3_0.gif
97.012	1	4	0	3	0.014	4	0	4_0.gif
98.012	1	3	0	3	0.631	3	1	3_0.gif
99.012	1	2	0	2	0.489	2	1	2_0.gif
100.012	1	3	0	3	0.659	3	1	3_0.gif
101.012	1	1	0	1	0.638	1	1	1_0.gif
102.012	1	3	0	3	0.539	3	1	3_0.gif
103.012	1	1	0	1	0.536	1	1	1_0.gif
104.012	1	2	0	2	0.463	2	1	2_0.gif
105.012	1	1	0	1	0.524	1	1	1_0.gif
106.012	1	3	0	3	0.395	3	1	3_0.gif
107.012	1	1	0	1	0.433	1	1	1_0.gif
108.012	1	3	0	3	0.46	3	1	3_0.gif
109.012	1	2	0	2	0.519	2	1	2_0.gif
110.012	1	3	0	3	0.534	3	1	3_0.gif
111.012	1	4	0	4	0.58	4	1	4_0.gif
112.013	1	1	2	6	0	3	n/a	1_2.gif
113.013	1	2	2	6	0	4	n/a	2_2.gif
114.013	1	3	2	1	0.227	1	1	3_2.gif
115.013	1	4	2	2	0.291	2	1	4_2.gif
116.013	1	3	2	3	0.155	3	1	3_2.gif
117.013	1	4	2	4	0.27	4	1	4_2.gif
118.013	1	2	2	3	0.296	3	1	2_2.gif
119.013	1	4	2	2	0.499	4	0	4_2.gif
120.013	1	1	2	4	0.336	2	0	1_2.gif
121.013	1	4	2	1	0.408	4	0	4_2.gif
122.013	1	2	2	4	0.61	1	0	2_2.gif
123.013	1	4	2	2	0.558	4	0	4_2.gif
124.013	1	2	2	4	0.682	2	0	2_2.gif
125.013	1	1	2	4	0.013	4	1	1_2.gif
126.013	1	3	2	2	0.013	2	1	3_2.gif
127.013	1	1	2	1	0.014	1	1	1_2.gif
128.013	1	3	0	3	0.915	3	1	3_0.gif
129.013	1	2	0	3	0.014	2	0	2_0.gif
130.013	1	4	0	2	0.014	4	0	4_0.gif
131.013	1	1	0	4	0.014	1	0	1_0.gif
132.013	1	4	0	4	0.547	4	1	4_0.gif
133.013	1	1	0	1	0.572	1	1	1_0.gif
134.013	1	4	0	4	0.337	4	1	4_0.gif
135.013	1	2	0	2	0.49	2	1	2_0.gif
136.013	1	3	0	1	0.876	3	0	3_0.gif
137.013	1	1	0	3	0.062	1	0	1_0.gif
138.013	1	2	0	2	0.424	2	1	2_0.gif
139.013	1	1	0	1	0.518	1	1	1_0.gif
140.013	1	4	0	4	0.507	4	1	4_0.gif
141.013	1	2	0	2	0.481	2	1	2_0.gif
142.013	1	4	0	4	0.476	4	1	4_0.gif
143.013	1	3	0	3	0.575	3	1	3_0.gif
144.016	1	1	2	6	0	4	n/a	1_2.gif
145.016	1	2	2	6	0	3	n/a	2_2.gif
146.016	1	3	2	6	0	1	n/a	3_2.gif
147.016	1	2	2	2	0.228	2	1	2_2.gif
148.016	1	3	2	3	0.014	3	1	3_2.gif
149.016	1	4	2	6	0	2	n/a	4_2.gif
150.016	1	1	2	4	0.068	3	0	1_2.gif
151.016	1	4	2	1	0.549	4	0	4_2.gif
152.016	1	1	2	4	0.176	1	0	1_2.gif
153.016	1	2	2	1	0.299	4	0	2_2.gif
154.016	1	1	2	2	0.388	1	0	1_2.gif
155.016	1	4	2	4	0.914	2	0	4_2.gif
156.016	1	1	2	4	0.047	1	0	1_2.gif
157.016	1	3	2	1	0.015	4	0	3_2.gif
158.033	1	1	2	1	0.09	1	1	1_2.gif
159.033	1	3	2	4	0.013	3	0	3_2.gif
160.033	1	1	0	1	0.013	1	1	1_0.gif
161.033	1	3	0	1	0.249	3	0	3_0.gif
162.035	1	4	0	3	0.383	4	0	4_0.gif
163.035	1	1	0	4	0.013	1	0	1_0.gif
164.035	1	2	0	2	0.614	2	1	2_0.gif
165.035	1	1	0	1	0.454	1	1	1_0.gif
166.035	1	3	0	3	0.575	3	1	3_0.gif
167.035	1	1	0	1	0.658	1	1	1_0.gif
168.035	1	3	0	3	0.491	3	1	3_0.gif
169.035	1	1	0	1	0.421	1	1	1_0.gif
170.035	1	2	0	2	0.795	2	1	2_0.gif
171.035	1	3	0	2	0.014	3	0	3_0.gif
172.035	1	1	0	1	0.592	1	1	1_0.gif
173.035	1	3	0	3	0.51	3	1	3_0.gif
174.035	1	1	0	1	0.416	1	1	1_0.gif
175.035	1	3	0	3	0.471	3	1	3_0.gif
176.036	1	4	2	6	0	1	n/a	4_2.gif
177.036	1	3	2	6	0	3	n/a	3_2.gif
178.036	1	1	2	4	0.308	4	1	1_2.gif
179.036	1	4	2	3	0.326	3	1	4_2.gif
180.036	1	2	2	1	0.481	1	1	2_2.gif
181.036	1	4	2	2	0.395	4	0	4_2.gif
182.036	1	3	2	4	0.519	2	0	3_2.gif
183.036	1	4	2	4	0.013	4	1	4_2.gif
184.036	1	1	2	1	0.547	3	0	1_2.gif
185.036	1	3	2	6	0	4	n/a	3_2.gif
186.036	1	2	2	1	0.899	1	1	2_2.gif
187.036	1	1	2	3	0.35	3	1	1_2.gif
188.036	1	3	2	2	0.358	2	1	3_2.gif
189.036	1	1	2	1	0.354	1	1	1_2.gif
190.036	1	2	2	3	0.017	3	1	2_2.gif
191.036	1	3	2	2	0.49	1	0	3_2.gif
192.037	1	2	0	6	0	2	n/a	2_0.gif
193.037	1	3	0	6	0	3	n/a	3_0.gif
194.037	1	2	0	2	0.518	2	1	2_0.gif
195.037	1	3	0	3	0.222	3	1	3_0.gif
196.037	1	2	0	2	0.315	2	1	2_0.gif
197.037	1	1	0	1	0.371	1	1	1_0.gif
198.037	1	2	0	2	0.758	2	1	2_0.gif
199.037	1	1	0	2	0.014	1	0	1_0.gif
200.037	1	2	0	2	0.414	2	1	2_0.gif
201.037	1	4	0	4	0.503	4	1	4_0.gif
202.037	1	1	0	1	0.445	1	1	1_0.gif
203.037	1	4	0	4	0.412	4	1	4_0.gif
204.037	1	3	0	3	0.494	3	1	3_0.gif
205.037	1	2	0	2	0.471	2	1	2_0.gif
206.037	1	1	0	1	0.485	1	1	1_0.gif
207.037	1	2	0	2	0.44	2	1	2_0.gif
208.038	1	3	2	3	0.44	1	0	3_2.gif
209.038	1	1	2	3	0.893	2	0	1_2.gif
210.038	1	2	2	3	0.014	3	1	2_2.gif
211.038	1	3	2	1	0.013	1	1	3_2.gif
212.038	1	4	2	3	0.463	2	0	4_2.gif
213.038	1	1	2	4	0.283	3	0	1_2.gif
214.038	1	2	2	1	0.176	4	0	2_2.gif
215.249	1	3	2	2	0.484	1	0	3_2.gif
216.249	1	4	2	3	0.22	2	0	4_2.gif
217.249	1	3	2	4	0.064	3	0	3_2.gif
218.249	1	4	2	4	0.557	4	1	4_2.gif
219.249	1	2	2	6	0	3	n/a	2_2.gif
220.249	1	4	2	4	0.15	4	1	4_2.gif
221.249	1	2	2	2	0.013	2	1	2_2.gif
222.249	1	3	2	2	0.656	4	0	3_2.gif
223.249	1	2	2	1	0.502	2	0	2_2.gif
224.25	1	1	0	1	0.568	1	1	1_0.gif
225.25	1	4	0	4	0.396	4	1	4_0.gif
226.25	1	2	0	4	0.014	2	0	2_0.gif
227.25	1	4	0	6	0	4	n/a	4_0.gif
228.25	1	2	0	4	0.082	2	0	2_0.gif
229.25	1	4	0	4	0.525	4	1	4_0.gif
230.25	1	1	0	1	0.504	1	1	1_0.gif
231.25	1	4	0	4	0.437	4	1	4_0.gif
232.25	1	3	0	3	0.474	3	1	3_0.gif
233.25	1	1	0	1	0.586	1	1	1_0.gif
234.25	1	2	0	2	0.448	2	1	2_0.gif
235.25	1	3	0	3	0.432	3	1	3_0.gif
236.25	1	1	0	1	0.457	1	1	1_0.gif
237.25	1	3	0	3	0.504	3	1	3_0.gif
238.25	1	4	0	4	0.472	4	1	4_0.gif
239.25	1	2	0	2	0.406	2	1	2_0.gif
240.25	1	4	2	6	0	4	n/a	4_2.gif
241.25	1	1	2	4	0.566	2	0	1_2.gif
242.25	1	3	2	3	0.332	4	0	3_2.gif
243.25	1	1	2	4	0.295	1	0	1_2.gif
244.25	1	2	2	3	0.1	3	1	2_2.gif
245.25	1	3	2	1	0.131	1	1	3_2.gif
246.25	1	2	2	2	0.156	2	1	2_2.gif
247.25	1	4	2	4	0.408	3	0	4_2.gif
248.25	1	1	2	1	0.754	2	0	1_2.gif
249.25	1	3	2	1	0.014	4	0	3_2.gif
250.25	1	2	2	1	0.084	1	1	2_2.gif
251.25	1	3	2	3	0.212	3	1	3_2.gif
252.25	1	2	2	2	0.195	2	1	2_2.gif
253.25	1	4	2	3	0.273	3	1	4_2.gif
254.25	1	2	2	2	0.014	2	1	2_2.gif
255.25	1	3	2	6	0	4	n/a	3_2.gif
