onset	duration	nback_display	trial_type	response	response_time	correct_response	correct	stim_file
0	1.5	3	0	3	1.224	3	1	3_0.gif
1.5	1.5	4	0	4	0.679	4	1	4_0.gif
3	1.5	1	0	1	0.448	1	1	1_0.gif
4.5	1.5	3	0	3	0.532	3	1	3_0.gif
6	1.5	4	0	4	0.445	4	1	4_0.gif
7.5	1.5	3	0	3	0.573	3	1	3_0.gif
9	1.5	4	0	4	0.41	4	1	4_0.gif
10.5	1.5	1	0	1	0.456	1	1	1_0.gif
12	1.5	3	0	3	0.463	3	1	3_0.gif
13.5	1.5	4	0	4	0.47	4	1	4_0.gif
15	1.5	1	0	1	0.523	1	1	1_0.gif
16.5	1.5	3	0	3	0.556	3	1	3_0.gif
18	1.5	1	0	3	0.013	1	0	1_0.gif
19.5	1.5	2	0	2	0.81	2	1	2_0.gif
21	1.5	1	0	1	0.602	1	1	1_0.gif
22.5	1.5	2	0	2	0.355	2	1	2_0.gif
24.001	1.5	4	2	6	0	1	n/a	4_2.gif
25.501	1.5	3	2	6	0	2	n/a	3_2.gif
27.001	1.5	1	2	4	0.229	4	1	1_2.gif
28.501	1.5	4	2	3	0.227	3	1	4_2.gif
30.001	1.5	3	2	1	0.208	1	1	3_2.gif
31.501	1.5	1	2	4	0.195	4	1	1_2.gif
33.001	1.5	3	2	3	0.483	3	1	3_2.gif
34.501	1.5	1	2	1	0.247	1	1	1_2.gif
36.001	1.5	2	2	1	0.249	3	0	2_2.gif
37.501	1.5	3	2	3	0.14	1	0	3_2.gif
39.001	1.5	4	2	2	0.188	2	1	4_2.gif
40.501	1.5	1	2	3	0.125	3	1	1_2.gif
42.001	1.5	2	2	4	0.127	4	1	2_2.gif
43.501	1.5	1	2	1	0.025	1	1	1_2.gif
45.001	1.5	4	2	2	0.029	2	1	4_2.gif
46.501	1.5	1	2	1	0.017	1	1	1_2.gif
48.002	1.5	3	0	3	1.158	3	1	3_0.gif
49.502	1.5	4	0	4	0.474	4	1	4_0.gif
51.002	1.5	2	0	2	0.611	2	1	2_0.gif
52.502	1.5	1	0	1	0.374	1	1	1_0.gif
54.002	1.5	4	0	4	0.467	4	1	4_0.gif
55.502	1.5	3	0	3	0.493	3	1	3_0.gif
57.002	1.5	4	0	4	0.538	4	1	4_0.gif
58.502	1.5	3	0	3	0.524	3	1	3_0.gif
60.002	1.5	2	0	2	0.567	2	1	2_0.gif
61.502	1.5	3	0	3	0.49	3	1	3_0.gif
63.002	1.5	1	0	1	0.576	1	1	1_0.gif
64.502	1.5	2	0	2	0.501	2	1	2_0.gif
66.002	1.5	1	0	1	0.536	1	1	1_0.gif
67.502	1.5	3	0	3	0.509	3	1	3_0.gif
69.002	1.5	1	0	1	0.47	1	1	1_0.gif
70.502	1.5	2	0	2	0.544	2	1	2_0.gif
72.002	1.5	3	2	3	0.569	1	0	3_2.gif
73.502	1.5	4	2	6	0	2	n/a	4_2.gif
75.002	1.5	3	2	3	0.323	3	1	3_2.gif
76.502	1.5	2	2	4	0.263	4	1	2_2.gif
78.002	1.5	1	2	3	0.324	3	1	1_2.gif
79.502	1.5	3	2	2	0.275	2	1	3_2.gif
81.002	1.5	4	2	1	0.16	1	1	4_2.gif
82.502	1.5	3	2	3	0.248	3	1	3_2.gif
84.002	1.5	2	2	3	0.465	4	0	2_2.gif
85.502	1.5	4	2	4	0.223	3	0	4_2.gif
87.002	1.5	2	2	2	0.191	2	1	2_2.gif
88.502	1.5	1	2	4	0.036	4	1	1_2.gif
90.003	1.5	2	2	1	0.013	2	0	2_2.gif
91.503	1.5	4	2	2	0.073	1	0	4_2.gif
93.003	1.5	3	2	4	0.233	2	0	3_2.gif
94.503	1.5	1	2	3	0.36	4	0	1_2.gif
96.007	1.5	3	0	3	0.777	3	1	3_0.gif
97.507	1.5	4	0	4	0.471	4	1	4_0.gif
99.007	1.5	3	0	3	0.536	3	1	3_0.gif
100.507	1.5	1	0	6	0	1	n/a	1_0.gif
102.007	1.5	4	0	4	1.293	4	1	4_0.gif
103.507	1.5	2	0	4	0.014	2	0	2_0.gif
105.007	1.5	1	0	1	0.539	1	1	1_0.gif
106.507	1.5	3	0	3	0.523	3	1	3_0.gif
108.007	1.5	4	0	4	0.454	4	1	4_0.gif
109.507	1.5	2	0	2	0.398	2	1	2_0.gif
111.007	1.5	1	0	1	0.41	1	1	1_0.gif
112.507	1.5	2	0	2	0.653	2	1	2_0.gif
114.007	1.5	4	0	4	0.681	4	1	4_0.gif
115.507	1.5	3	0	3	0.596	3	1	3_0.gif
117.007	1.5	1	0	1	0.79	1	1	1_0.gif
118.507	1.5	2	0	2	0.501	2	1	2_0.gif
120.008	1.5	4	2	4	0.517	1	0	4_2.gif
121.508	1.5	2	2	6	0	2	n/a	2_2.gif
123.008	1.5	4	2	4	0.242	4	1	4_2.gif
124.508	1.5	2	2	2	0.273	2	1	2_2.gif
126.008	1.5	4	2	4	0.24	4	1	4_2.gif
127.508	1.5	1	2	2	0.154	2	1	1_2.gif
129.008	1.5	3	2	4	0.024	4	1	3_2.gif
130.508	1.5	1	2	1	0.014	1	1	1_2.gif
132.008	1.5	3	2	1	0.186	3	0	3_2.gif
133.508	1.5	4	2	3	0.013	1	0	4_2.gif
135.008	1.5	2	2	1	0.581	3	0	2_2.gif
136.508	1.5	3	2	3	0.014	4	0	3_2.gif
138.008	1.5	4	2	2	0.652	2	1	4_2.gif
139.508	1.5	1	2	2	0.942	3	0	1_2.gif
141.008	1.5	4	2	3	0.423	4	0	4_2.gif
142.508	1.5	2	2	4	0.265	1	0	2_2.gif
144.009	1.5	4	0	4	0.738	4	1	4_0.gif
145.509	1.5	1	0	1	0.44	1	1	1_0.gif
147.009	1.5	2	0	2	0.435	2	1	2_0.gif
148.509	1.5	4	0	4	0.647	4	1	4_0.gif
150.009	1.5	1	0	1	0.538	1	1	1_0.gif
151.509	1.5	2	0	2	0.611	2	1	2_0.gif
153.009	1.5	3	0	3	0.57	3	1	3_0.gif
154.509	1.5	2	0	2	1.391	2	1	2_0.gif
156.009	1.5	1	0	2	0.014	1	0	1_0.gif
157.509	1.5	2	0	2	0.656	2	1	2_0.gif
159.009	1.5	3	0	3	0.484	3	1	3_0.gif
160.509	1.5	1	0	1	0.484	1	1	1_0.gif
162.009	1.5	3	0	3	0.396	3	1	3_0.gif
163.509	1.5	1	0	1	0.427	1	1	1_0.gif
165.009	1.5	3	0	3	0.388	3	1	3_0.gif
166.509	1.5	4	0	4	0.475	4	1	4_0.gif
168.009	1.5	2	2	6	0	3	n/a	2_2.gif
169.509	1.5	4	2	6	0	4	n/a	4_2.gif
171.009	1.5	1	2	2	0.22	2	1	1_2.gif
172.509	1.5	3	2	4	0.143	4	1	3_2.gif
174.009	1.5	1	2	1	0.146	1	1	1_2.gif
175.509	1.5	3	2	3	0.034	3	1	3_2.gif
177.009	1.5	1	2	1	0.181	1	1	1_2.gif
178.509	1.5	2	2	3	0.152	3	1	2_2.gif
180.009	1.5	3	2	1	0.081	1	1	3_2.gif
181.509	1.5	2	2	2	0.128	2	1	2_2.gif
183.009	1.5	3	2	2	0.262	3	0	3_2.gif
184.509	1.5	4	2	3	0.134	2	0	4_2.gif
186.009	1.5	2	2	2	0.224	3	0	2_2.gif
187.509	1.5	3	2	3	0.068	4	0	3_2.gif
189.009	1.5	4	2	3	0.153	2	0	4_2.gif
190.509	1.5	2	2	4	0.015	3	0	2_2.gif
192.01	1.5	3	0	3	0.915	3	1	3_0.gif
193.51	1.5	1	0	1	0.581	1	1	1_0.gif
195.01	1.5	2	0	2	0.448	2	1	2_0.gif
196.51	1.5	3	0	3	0.386	3	1	3_0.gif
198.01	1.5	4	0	4	0.436	4	1	4_0.gif
199.51	1.5	3	0	3	0.457	3	1	3_0.gif
201.01	1.5	2	0	2	0.4	2	1	2_0.gif
202.51	1.5	1	0	1	0.413	1	1	1_0.gif
204.01	1.5	2	0	2	0.627	2	1	2_0.gif
205.51	1.5	1	0	1	0.445	1	1	1_0.gif
207.01	1.5	4	0	4	0.53	4	1	4_0.gif
208.51	1.5	1	0	1	0.51	1	1	1_0.gif
210.01	1.5	2	0	2	0.422	2	1	2_0.gif
211.51	1.5	1	0	1	0.462	1	1	1_0.gif
213.01	1.5	3	0	4	0.684	3	0	3_0.gif
214.51	1.5	1	0	3	0.014	1	0	1_0.gif
216.011	1.5	4	2	6	0	3	n/a	4_2.gif
217.511	1.5	3	2	6	0	1	n/a	3_2.gif
219.011	1.5	1	2	4	0.291	4	1	1_2.gif
220.511	1.5	3	2	3	0.169	3	1	3_2.gif
222.011	1.5	1	2	1	0.218	1	1	1_2.gif
223.511	1.5	2	2	3	0.03	3	1	2_2.gif
225.011	1.5	4	2	1	0.092	1	1	4_2.gif
226.511	1.5	2	2	2	0.014	2	1	2_2.gif
228.011	1.5	3	2	2	0.046	4	0	3_2.gif
229.511	1.5	1	2	4	0.014	2	0	1_2.gif
231.011	1.5	3	2	2	0.013	3	0	3_2.gif
232.511	1.5	4	2	1	1.274	1	1	4_2.gif
234.011	1.5	3	2	1	0.014	3	0	3_2.gif
235.511	1.5	2	2	3	0.013	4	0	2_2.gif
237.011	1.5	3	2	2	0.357	3	0	3_2.gif
238.511	1.5	2	2	3	0.091	2	0	2_2.gif
240.012	1.5	4	0	4	0.705	4	1	4_0.gif
241.512	1.5	2	0	2	0.597	2	1	2_0.gif
243.012	1.5	4	0	4	0.561	4	1	4_0.gif
244.512	1.5	1	0	1	0.71	1	1	1_0.gif
246.012	1.5	2	0	2	0.585	2	1	2_0.gif
247.512	1.5	4	0	4	0.72	4	1	4_0.gif
249.012	1.5	3	0	3	0.728	3	1	3_0.gif
250.512	1.5	4	0	4	0.737	4	1	4_0.gif
252.012	1.5	2	0	2	0.67	2	1	2_0.gif
253.512	1.5	3	0	3	0.506	3	1	3_0.gif
255.012	1.5	4	0	4	0.504	4	1	4_0.gif
256.512	1.5	2	0	2	0.614	2	1	2_0.gif
258.012	1.5	1	0	1	0.58	1	1	1_0.gif
259.512	1.5	3	0	3	0.442	3	1	3_0.gif
261.012	1.5	4	0	4	0.558	4	1	4_0.gif
262.516	1.5	3	0	3	0.547	3	1	3_0.gif
264.017	1.5	1	2	1	0.803	4	0	1_2.gif
265.517	1.5	4	2	6	0	3	n/a	4_2.gif
267.017	1.5	3	2	1	0.017	1	1	3_2.gif
268.517	1.5	2	2	4	0.134	4	1	2_2.gif
270.017	1.5	3	2	3	0.153	3	1	3_2.gif
271.517	1.5	2	2	2	0.421	2	1	2_2.gif
273.017	1.5	3	2	3	1.398	3	1	3_2.gif
274.517	1.5	2	2	3	0.014	2	0	2_2.gif
276.017	1.5	1	2	2	0.23	3	0	1_2.gif
277.517	1.5	2	2	1	0.286	2	0	2_2.gif
279.017	1.5	4	2	2	0.7	1	0	4_2.gif
280.517	1.5	2	2	4	0.443	2	0	2_2.gif
282.017	1.5	1	2	2	0.405	4	0	1_2.gif
283.517	1.5	2	2	1	0.296	2	0	2_2.gif
285.017	1.5	3	2	2	0.267	1	0	3_2.gif
286.517	1.5	2	2	6	0	2	n/a	2_2.gif
288.017	1.5	4	0	4	0.811	4	1	4_0.gif
289.517	1.5	2	0	2	0.558	2	1	2_0.gif
291.017	1.5	1	0	1	0.368	1	1	1_0.gif
292.517	1.5	3	0	3	0.331	3	1	3_0.gif
294.017	1.5	4	0	4	0.376	4	1	4_0.gif
295.517	1.5	1	0	1	0.478	1	1	1_0.gif
297.017	1.5	3	0	3	0.499	3	1	3_0.gif
298.517	1.5	4	0	4	0.432	4	1	4_0.gif
300.017	1.5	3	0	3	0.457	3	1	3_0.gif
301.517	1.5	4	0	4	0.49	4	1	4_0.gif
303.017	1.5	1	0	1	0.339	1	1	1_0.gif
304.517	1.5	3	0	3	0.303	3	1	3_0.gif
306.017	1.5	4	0	4	0.47	4	1	4_0.gif
307.517	1.5	1	0	1	0.415	1	1	1_0.gif
309.017	1.5	3	0	1	0.498	3	0	3_0.gif
310.517	1.5	1	0	1	0.546	1	1	1_0.gif
312.018	1.5	2	2	6	0	3	n/a	2_2.gif
313.518	1.5	1	2	6	0	1	n/a	1_2.gif
315.018	1.5	2	2	2	0.225	2	1	2_2.gif
316.518	1.5	4	2	1	0.274	1	1	4_2.gif
318.019	1.5	3	2	2	0.47	2	1	3_2.gif
319.519	1.5	1	2	4	0.254	4	1	1_2.gif
321.019	1.5	4	2	3	0.217	3	1	4_2.gif
322.519	1.5	3	2	1	0.015	1	1	3_2.gif
324.019	1.5	1	2	4	0.014	4	1	1_2.gif
325.519	1.5	3	2	3	0.015	3	1	3_2.gif
327.019	1.5	1	2	1	0.192	1	1	1_2.gif
328.519	1.5	2	2	3	0.2	3	1	2_2.gif
330.019	1.5	3	2	1	0.015	1	1	3_2.gif
331.519	1.5	4	2	2	0.015	2	1	4_2.gif
333.019	1.5	1	2	3	0.015	3	1	1_2.gif
334.519	1.5	2	2	4	0.015	4	1	2_2.gif
336.02	1.5	1	0	1	0.017	1	1	1_0.gif
337.52	1.5	4	0	4	0.578	4	1	4_0.gif
339.02	1.5	1	0	1	0.739	1	1	1_0.gif
340.52	1.5	3	0	3	0.428	3	1	3_0.gif
342.02	1.5	4	0	4	0.465	4	1	4_0.gif
343.52	1.5	2	0	2	0.312	2	1	2_0.gif
345.02	1.5	1	0	1	0.319	1	1	1_0.gif
346.52	1.5	4	0	4	0.557	4	1	4_0.gif
348.02	1.5	3	0	3	0.413	3	1	3_0.gif
349.52	1.5	4	0	4	0.504	4	1	4_0.gif
351.02	1.5	3	0	3	0.385	3	1	3_0.gif
352.52	1.5	2	0	2	0.448	2	1	2_0.gif
354.02	1.5	3	0	3	0.408	3	1	3_0.gif
355.52	1.5	1	0	1	0.507	1	1	1_0.gif
357.02	1.5	2	0	2	0.528	2	1	2_0.gif
358.522	1.5	1	0	1	0.52	1	1	1_0.gif
360.022	1.5	3	2	3	0.664	2	0	3_2.gif
361.522	1.5	1	2	3	1.348	1	0	1_2.gif
363.022	1.5	2	2	3	0.015	3	1	2_2.gif
364.522	1.5	3	2	2	1.377	1	0	3_2.gif
366.022	1.5	4	2	2	0.015	2	1	4_2.gif
367.522	1.5	3	2	3	0.136	3	1	3_2.gif
369.022	1.5	2	2	4	1.41	4	1	2_2.gif
370.522	1.5	1	2	2	0.015	3	0	1_2.gif
372.022	1.5	3	2	2	0.549	2	1	3_2.gif
373.522	1.5	4	2	6	0	1	n/a	4_2.gif
375.022	1.5	3	2	3	0.256	3	1	3_2.gif
376.522	1.5	2	2	4	0.115	4	1	2_2.gif
378.022	1.5	4	2	3	0.26	3	1	4_2.gif
379.522	1.5	2	2	2	0.298	2	1	2_2.gif
381.022	1.5	1	2	2	0.386	4	0	1_2.gif
382.522	1.5	2	2	4	1.125	2	0	2_2.gif
