onset	duration	nback_display	trial_type	response	response_time	correct_response	correct	stim_file
0	1	2	0	2	0.777	2	1	2_0.gif
1	1	1	0	2	0.008	1	0	1_0.gif
2	1	3	0	3	0.366	3	1	3_0.gif
3	1	2	0	2	0.34	2	1	2_0.gif
4	1	1	0	1	0.36	1	1	1_0.gif
5	1	2	0	2	0.356	2	1	2_0.gif
6	1	3	0	3	0.351	3	1	3_0.gif
7	1	2	0	2	0.365	2	1	2_0.gif
8	1	4	0	4	0.379	4	1	4_0.gif
9	1	1	0	1	0.427	1	1	1_0.gif
10	1	3	0	3	0.362	3	1	3_0.gif
11	1	4	0	4	0.342	4	1	4_0.gif
12	1	2	0	2	0.329	2	1	2_0.gif
13	1	4	0	4	0.372	4	1	4_0.gif
14	1	1	0	1	0.368	1	1	1_0.gif
15	1	4	0	4	0.341	4	1	4_0.gif
16	1	1	2	6	0	1	n/a	1_2.gif
17	1	3	2	6	0	4	n/a	3_2.gif
18	1	2	2	1	0.253	1	1	2_2.gif
19	1	1	2	3	0.07	3	1	1_2.gif
20	1	4	2	2	0.007	2	1	4_2.gif
21	1	2	2	1	0.126	1	1	2_2.gif
22	1	4	2	4	0.169	4	1	4_2.gif
23	1	3	2	2	0.268	2	1	3_2.gif
24	1	1	2	4	0.33	4	1	1_2.gif
25	1	2	2	3	0.267	3	1	2_2.gif
26	1	4	2	1	0.376	1	1	4_2.gif
27	1	2	2	4	0.339	2	0	2_2.gif
28	1	1	2	6	0	4	n/a	1_2.gif
29	1	2	2	6	0	2	n/a	2_2.gif
30	1	4	2	1	0.175	1	1	4_2.gif
31	1	2	2	2	0.168	2	1	2_2.gif
32.001	1	3	0	4	0.2	3	0	3_0.gif
33.001	1	1	0	1	0.432	1	1	1_0.gif
34.001	1	4	0	4	0.384	4	1	4_0.gif
35.001	1	2	0	2	0.374	2	1	2_0.gif
36.001	1	3	0	3	0.321	3	1	3_0.gif
37.001	1	2	0	2	0.331	2	1	2_0.gif
38.001	1	1	0	1	0.306	1	1	1_0.gif
39.001	1	3	0	3	0.3	3	1	3_0.gif
40.001	1	2	0	2	0.336	2	1	2_0.gif
41.001	1	3	0	3	0.326	3	1	3_0.gif
42.001	1	1	0	1	0.361	1	1	1_0.gif
43.003	1	4	0	4	0.284	4	1	4_0.gif
44.003	1	1	0	1	0.35	1	1	1_0.gif
45.003	1	3	0	3	0.337	3	1	3_0.gif
46.003	1	2	0	2	0.311	2	1	2_0.gif
47.003	1	4	0	4	0.278	4	1	4_0.gif
48.003	1	2	2	6	0	2	n/a	2_2.gif
49.003	1	3	2	6	0	4	n/a	3_2.gif
50.003	1	4	2	2	0.283	2	1	4_2.gif
51.003	1	2	2	3	0.106	3	1	2_2.gif
52.003	1	3	2	4	0.154	4	1	3_2.gif
53.003	1	2	2	2	0.253	2	1	2_2.gif
54.003	1	1	2	3	0.195	3	1	1_2.gif
55.003	1	3	2	2	0.191	2	1	3_2.gif
56.003	1	1	2	1	0.008	1	1	1_2.gif
57.003	1	3	2	3	0.007	3	1	3_2.gif
58.003	1	4	2	1	0.03	1	1	4_2.gif
59.003	1	2	2	3	0.022	3	1	2_2.gif
60.003	1	4	2	4	0.007	4	1	4_2.gif
61.003	1	2	2	2	0.028	2	1	2_2.gif
62.003	1	3	2	4	0.006	4	1	3_2.gif
63.003	1	2	2	2	0.007	2	1	2_2.gif
64.004	1	4	0	3	0.007	4	0	4_0.gif
65.004	1	1	0	1	0.285	1	1	1_0.gif
66.004	1	3	0	3	0.315	3	1	3_0.gif
67.004	1	1	0	1	0.358	1	1	1_0.gif
68.004	1	4	0	4	0.256	4	1	4_0.gif
69.004	1	1	0	1	0.287	1	1	1_0.gif
70.004	1	2	0	2	0.333	2	1	2_0.gif
71.004	1	3	0	3	0.273	3	1	3_0.gif
72.004	1	1	0	1	0.313	1	1	1_0.gif
73.004	1	4	0	4	0.306	4	1	4_0.gif
74.004	1	1	0	1	0.316	1	1	1_0.gif
75.004	1	3	0	3	0.32	3	1	3_0.gif
76.004	1	2	0	2	0.662	2	1	2_0.gif
77.004	1	4	0	4	0.322	4	1	4_0.gif
78.004	1	1	0	1	0.297	1	1	1_0.gif
79.004	1	3	0	3	0.3	3	1	3_0.gif
80.004	1	1	2	6	0	1	n/a	1_2.gif
81.004	1	2	2	6	0	3	n/a	2_2.gif
82.004	1	3	2	1	0.195	1	1	3_2.gif
83.004	1	4	2	2	0.052	2	1	4_2.gif
84.004	1	3	2	3	0.046	3	1	3_2.gif
85.004	1	4	2	4	0.128	4	1	4_2.gif
86.004	1	2	2	3	0.021	3	1	2_2.gif
87.004	1	3	2	4	0.006	4	1	3_2.gif
88.004	1	2	2	2	0.006	2	1	2_2.gif
89.005	1	3	2	3	0.006	3	1	3_2.gif
90.005	1	4	2	6	0	2	n/a	4_2.gif
91.005	1	1	2	4	0.945	3	0	1_2.gif
92.005	1	3	2	4	0.006	4	1	3_2.gif
93.005	1	2	2	1	0.006	1	1	2_2.gif
94.005	1	1	2	3	0.006	3	1	1_2.gif
95.005	1	3	2	2	0.006	2	1	3_2.gif
96.005	1	4	0	1	0.006	4	0	4_0.gif
97.005	1	1	0	1	0.363	1	1	1_0.gif
98.005	1	3	0	3	0.294	3	1	3_0.gif
99.005	1	4	0	4	0.381	4	1	4_0.gif
100.005	1	1	0	1	0.358	1	1	1_0.gif
101.005	1	3	0	3	0.302	3	1	3_0.gif
102.005	1	4	0	4	0.335	4	1	4_0.gif
103.005	1	2	0	2	0.34	2	1	2_0.gif
104.005	1	4	0	4	0.353	4	1	4_0.gif
105.005	1	3	0	3	0.394	3	1	3_0.gif
106.005	1	4	0	4	0.301	4	1	4_0.gif
107.005	1	2	0	2	0.36	2	1	2_0.gif
108.005	1	3	0	3	0.297	3	1	3_0.gif
109.005	1	1	0	1	0.288	1	1	1_0.gif
110.005	1	3	0	3	0.333	3	1	3_0.gif
111.005	1	4	0	4	0.235	4	1	4_0.gif
112.006	1	1	2	1	0.293	3	0	1_2.gif
113.006	1	2	2	1	0.998	4	0	2_2.gif
114.007	1	4	2	1	0.007	1	1	4_2.gif
115.007	1	1	2	2	0.007	2	1	1_2.gif
116.007	1	2	2	1	0.824	4	0	2_2.gif
117.007	1	1	2	1	0.009	1	1	1_2.gif
118.007	1	2	2	2	0.007	2	1	2_2.gif
119.007	1	3	2	3	0.564	1	0	3_2.gif
120.007	1	1	2	6	0	2	n/a	1_2.gif
121.007	1	3	2	6	0	3	n/a	3_2.gif
122.007	1	2	2	1	0.127	1	1	2_2.gif
123.007	1	4	2	3	0.007	3	1	4_2.gif
124.007	1	3	2	2	0.006	2	1	3_2.gif
125.007	1	2	2	4	0.006	4	1	2_2.gif
126.007	1	3	2	3	0.15	3	1	3_2.gif
127.007	1	1	2	2	0.095	2	1	1_2.gif
128.007	1	2	0	1	0.006	2	0	2_0.gif
129.007	1	3	0	3	0.321	3	1	3_0.gif
130.007	1	2	0	2	0.272	2	1	2_0.gif
131.007	1	1	0	1	0.26	1	1	1_0.gif
132.007	1	4	0	4	0.263	4	1	4_0.gif
133.007	1	2	0	2	0.367	2	1	2_0.gif
134.007	1	4	0	4	0.328	4	1	4_0.gif
135.007	1	3	0	3	0.375	3	1	3_0.gif
136.007	1	4	0	4	0.376	4	1	4_0.gif
137.008	1	3	0	3	0.381	3	1	3_0.gif
138.008	1	4	0	4	0.311	4	1	4_0.gif
139.008	1	3	0	3	0.327	3	1	3_0.gif
140.008	1	4	0	4	0.307	4	1	4_0.gif
141.008	1	1	0	1	0.386	1	1	1_0.gif
142.008	1	2	0	2	0.396	2	1	2_0.gif
143.008	1	4	0	4	0.343	4	1	4_0.gif
144.008	1	2	2	2	0.375	2	1	2_2.gif
145.008	1	3	2	6	0	4	n/a	3_2.gif
146.008	1	4	2	2	0.088	2	1	4_2.gif
147.008	1	1	2	3	0.007	3	1	1_2.gif
148.01	1	4	2	4	0.006	4	1	4_2.gif
149.01	1	2	2	1	0.009	1	1	2_2.gif
150.01	1	4	2	6	0	4	n/a	4_2.gif
151.01	1	2	2	4	0.276	2	0	2_2.gif
152.01	1	1	2	2	0.012	4	0	1_2.gif
153.01	1	3	2	1	0.007	2	0	3_2.gif
154.01	1	1	2	3	0.589	1	0	1_2.gif
155.01	1	3	2	1	0.663	3	0	3_2.gif
156.01	1	1	2	3	0.384	1	0	1_2.gif
157.01	1	3	2	1	0.524	3	0	3_2.gif
158.01	1	1	2	3	0.481	1	0	1_2.gif
159.01	1	4	2	4	0.882	3	0	4_2.gif
160.01	1	1	0	4	0.006	1	0	1_0.gif
161.01	1	2	0	2	0.415	2	1	2_0.gif
162.01	1	3	0	3	0.301	3	1	3_0.gif
163.01	1	2	0	2	0.369	2	1	2_0.gif
164.01	1	4	0	4	0.365	4	1	4_0.gif
165.01	1	3	0	3	0.364	3	1	3_0.gif
166.01	1	1	0	1	0.325	1	1	1_0.gif
167.01	1	2	0	2	0.355	2	1	2_0.gif
168.01	1	3	0	3	0.355	3	1	3_0.gif
169.01	1	1	0	1	0.407	1	1	1_0.gif
170.01	1	4	0	4	0.343	4	1	4_0.gif
171.01	1	2	0	2	0.316	2	1	2_0.gif
172.01	1	3	0	3	0.217	3	1	3_0.gif
173.01	1	2	0	2	0.371	2	1	2_0.gif
174.01	1	3	0	3	0.269	3	1	3_0.gif
175.01	1	4	0	4	0.309	4	1	4_0.gif
176.01	1	3	2	6	0	3	n/a	3_2.gif
177.01	1	2	2	6	0	4	n/a	2_2.gif
178.01	1	1	2	3	0.192	3	1	1_2.gif
179.01	1	2	2	2	0.009	2	1	2_2.gif
180.01	1	1	2	1	0.006	1	1	1_2.gif
181.01	1	2	2	1	0.712	2	0	2_2.gif
182.01	1	1	2	2	0.648	1	0	1_2.gif
183.01	1	4	2	1	0.703	2	0	4_2.gif
184.01	1	1	2	4	0.408	1	0	1_2.gif
185.01	1	3	2	1	0.312	4	0	3_2.gif
186.01	1	1	2	3	0.297	1	0	1_2.gif
187.01	1	4	2	1	0.154	3	0	4_2.gif
188.01	1	1	2	4	0.224	1	0	1_2.gif
189.011	1	4	2	1	0.26	4	0	4_2.gif
190.011	1	1	2	6	0	1	n/a	1_2.gif
191.011	1	3	2	6	0	4	n/a	3_2.gif
192.011	1	1	0	1	0.291	1	1	1_0.gif
193.011	1	4	0	4	0.307	4	1	4_0.gif
194.011	1	2	0	2	0.298	2	1	2_0.gif
195.011	1	1	0	1	0.493	1	1	1_0.gif
196.011	1	3	0	3	0.302	3	1	3_0.gif
197.011	1	2	0	2	0.313	2	1	2_0.gif
198.011	1	1	0	1	0.366	1	1	1_0.gif
199.011	1	2	0	2	0.338	2	1	2_0.gif
200.011	1	3	0	3	0.291	3	1	3_0.gif
201.011	1	2	0	2	0.334	2	1	2_0.gif
202.011	1	4	0	4	0.297	4	1	4_0.gif
203.011	1	1	0	1	0.348	1	1	1_0.gif
204.011	1	3	0	3	0.399	3	1	3_0.gif
205.011	1	4	0	4	0.34	4	1	4_0.gif
206.011	1	2	0	2	0.342	2	1	2_0.gif
207.011	1	4	0	4	0.357	4	1	4_0.gif
208.011	1	1	2	1	0.475	2	0	1_2.gif
209.011	1	4	2	6	0	4	n/a	4_2.gif
210.011	1	1	2	1	0.091	1	1	1_2.gif
211.011	1	3	2	4	0.006	4	1	3_2.gif
212.011	1	2	2	1	0.083	1	1	2_2.gif
213.011	1	1	2	3	0.007	3	1	1_2.gif
214.011	1	4	2	2	0.006	2	1	4_2.gif
215.011	1	2	2	6	0	1	n/a	2_2.gif
216.011	1	4	2	6	0	4	n/a	4_2.gif
217.011	1	3	2	2	0.18	2	1	3_2.gif
218.011	1	1	2	4	0.104	4	1	1_2.gif
219.011	1	2	2	1	0.29	3	0	2_2.gif
220.011	1	4	2	2	0.337	1	0	4_2.gif
221.011	1	2	2	4	0.263	2	0	2_2.gif
222.011	1	1	2	2	0.367	4	0	1_2.gif
223.011	1	2	2	6	0	2	n/a	2_2.gif
224.012	1	4	0	4	0.582	4	1	4_0.gif
225.012	1	2	0	2	0.352	2	1	2_0.gif
226.012	1	3	0	3	0.402	3	1	3_0.gif
227.012	1	1	0	1	0.306	1	1	1_0.gif
228.012	1	4	0	4	0.37	4	1	4_0.gif
229.012	1	2	0	2	0.381	2	1	2_0.gif
230.012	1	3	0	3	0.299	3	1	3_0.gif
231.013	1	2	0	2	0.312	2	1	2_0.gif
232.013	1	1	0	1	0.266	1	1	1_0.gif
233.013	1	3	0	3	0.453	3	1	3_0.gif
234.013	1	2	0	2	0.341	2	1	2_0.gif
235.013	1	3	0	3	0.396	3	1	3_0.gif
236.013	1	1	0	1	0.351	1	1	1_0.gif
237.013	1	4	0	4	0.305	4	1	4_0.gif
238.013	1	1	0	1	0.397	1	1	1_0.gif
239.013	1	3	0	3	0.415	3	1	3_0.gif
240.014	1	2	2	6	0	1	n/a	2_2.gif
241.014	1	4	2	6	0	3	n/a	4_2.gif
242.015	1	2	2	2	0.139	2	1	2_2.gif
243.015	1	3	2	4	0.113	4	1	3_2.gif
244.015	1	4	2	2	0.135	2	1	4_2.gif
245.015	1	2	2	4	0.102	3	0	2_2.gif
246.015	1	3	2	6	0	4	n/a	3_2.gif
247.015	1	2	2	2	0.467	2	1	2_2.gif
248.015	1	1	2	3	0.365	3	1	1_2.gif
249.015	1	3	2	2	0.226	2	1	3_2.gif
250.015	1	1	2	1	0.171	1	1	1_2.gif
251.015	1	3	2	3	0.12	3	1	3_2.gif
252.015	1	4	2	1	0.051	1	1	4_2.gif
253.015	1	2	2	4	0.307	3	0	2_2.gif
254.015	1	4	2	6	0	4	n/a	4_2.gif
255.015	1	2	2	2	0.208	2	1	2_2.gif
