onset	duration	nback_display	trial_type	response	response_time	correct_response	correct	stim_file
0	1	4	0	6	0	4	n/a	4_0.gif
1	1	3	0	4	0.114	3	0	3_0.gif
2	1	4	0	3	0.005	4	0	4_0.gif
3	1	3	0	3	0.31	3	1	3_0.gif
4.001	1	4	0	4	0.371	4	1	4_0.gif
5.001	1	1	0	1	0.563	1	1	1_0.gif
6.001	1	4	0	2	0.548	4	0	4_0.gif
7.001	1	2	0	2	0.48	2	1	2_0.gif
8.001	1	4	0	4	0.553	4	1	4_0.gif
9.001	1	2	0	2	0.607	2	1	2_0.gif
10.001	1	3	0	3	0.511	3	1	3_0.gif
11.001	1	4	0	4	0.431	4	1	4_0.gif
12.001	1	2	0	2	0.626	2	1	2_0.gif
13.001	1	4	0	4	0.745	4	1	4_0.gif
14.001	1	3	0	4	0.007	3	0	3_0.gif
15.001	1	4	0	4	0.514	4	1	4_0.gif
16.001	1	2	2	6	0	3	n/a	2_2.gif
17.001	1	3	2	6	0	4	n/a	3_2.gif
18.001	1	1	2	2	0.247	2	1	1_2.gif
19.001	1	4	2	3	0.174	3	1	4_2.gif
20.001	1	2	2	1	0.246	1	1	2_2.gif
21.001	1	4	2	4	0.258	4	1	4_2.gif
22.001	1	2	2	1	0.458	2	0	2_2.gif
23.001	1	3	2	4	0.54	4	1	3_2.gif
24.001	1	4	2	1	0.492	2	0	4_2.gif
25.001	1	2	2	3	0.323	3	1	2_2.gif
26.001	1	3	2	4	0.501	4	1	3_2.gif
27.001	1	4	2	1	0.29	2	0	4_2.gif
28.001	1	3	2	3	0.222	3	1	3_2.gif
29.001	1	1	2	4	0.366	4	1	1_2.gif
30.001	1	3	2	6	0	3	n/a	3_2.gif
31.001	1	4	2	6	0	1	n/a	4_2.gif
32.001	1	2	0	6	0	2	n/a	2_0.gif
33.001	1	3	0	2	0.011	3	0	3_0.gif
34.001	1	4	0	3	0.201	4	0	4_0.gif
35.001	1	1	0	1	0.482	1	1	1_0.gif
36.002	1	3	0	3	0.645	3	1	3_0.gif
37.002	1	1	0	1	0.517	1	1	1_0.gif
38.002	1	4	0	4	0.817	4	1	4_0.gif
39.002	1	1	0	4	0.006	1	0	1_0.gif
40.002	1	3	0	3	0.582	3	1	3_0.gif
41.002	1	1	0	1	0.49	1	1	1_0.gif
42.002	1	4	0	4	0.52	4	1	4_0.gif
43.002	1	1	0	1	0.384	1	1	1_0.gif
44.002	1	4	0	4	0.498	4	1	4_0.gif
45.002	1	3	0	3	0.488	3	1	3_0.gif
46.002	1	2	0	2	0.519	2	1	2_0.gif
47.002	1	4	0	4	0.549	4	1	4_0.gif
48.002	1	1	2	6	0	2	n/a	1_2.gif
49.002	1	2	2	6	0	4	n/a	2_2.gif
50.002	1	4	2	6	0	1	n/a	4_2.gif
51.002	1	1	2	1	0.142	2	0	1_2.gif
52.002	1	2	2	2	0.059	4	0	2_2.gif
53.002	1	3	2	4	0.081	1	0	3_2.gif
54.002	1	4	2	1	0.03	2	0	4_2.gif
55.002	1	1	2	2	0.055	3	0	1_2.gif
56.002	1	4	2	3	0.009	4	0	4_2.gif
57.002	1	3	2	4	0.012	1	0	3_2.gif
58.002	1	1	2	1	0.033	4	0	1_2.gif
59.002	1	3	2	4	0.019	3	0	3_2.gif
60.002	1	1	2	3	0.077	1	0	1_2.gif
61.002	1	4	2	1	0.02	3	0	4_2.gif
62.002	1	1	2	3	0.007	1	0	1_2.gif
63.002	1	4	2	1	0.006	4	0	4_2.gif
64.002	1	1	0	4	0.006	1	0	1_0.gif
65.002	1	4	0	1	0.007	4	0	4_0.gif
66.002	1	1	0	4	0.007	1	0	1_0.gif
67.002	1	3	0	3	0.643	3	1	3_0.gif
68.002	1	2	0	2	0.507	2	1	2_0.gif
69.002	1	4	0	4	0.575	4	1	4_0.gif
70.002	1	1	0	1	0.491	1	1	1_0.gif
71.002	1	3	0	4	0.492	3	0	3_0.gif
72.002	1	2	0	2	0.507	2	1	2_0.gif
73.002	1	1	0	1	0.43	1	1	1_0.gif
74.002	1	4	0	4	0.565	4	1	4_0.gif
75.002	1	2	0	2	0.525	2	1	2_0.gif
76.002	1	3	0	3	0.61	3	1	3_0.gif
77.002	1	2	0	2	0.576	2	1	2_0.gif
78.002	1	3	0	3	0.515	3	1	3_0.gif
79.002	1	1	0	1	0.441	1	1	1_0.gif
80.003	1	4	2	4	0.562	3	0	4_2.gif
81.003	1	3	2	6	0	1	n/a	3_2.gif
82.003	1	2	2	6	0	4	n/a	2_2.gif
83.003	1	3	2	3	0.429	3	1	3_2.gif
84.003	1	4	2	2	0.36	2	1	4_2.gif
85.003	1	3	2	3	0.373	3	1	3_2.gif
86.003	1	1	2	4	0.549	4	1	1_2.gif
87.003	1	2	2	3	0.605	3	1	2_2.gif
88.003	1	3	2	4	0.965	1	0	3_2.gif
89.003	1	2	2	4	0.007	2	0	2_2.gif
90.003	1	4	2	2	0.006	3	0	4_2.gif
91.003	1	1	2	6	0	2	n/a	1_2.gif
92.003	1	2	2	4	0.488	4	1	2_2.gif
93.003	1	1	2	1	0.276	1	1	1_2.gif
94.003	1	3	2	2	0.471	2	1	3_2.gif
95.003	1	2	2	6	0	1	n/a	2_2.gif
96.003	1	4	0	4	0.884	4	1	4_0.gif
97.003	1	1	0	4	0.007	1	0	1_0.gif
98.003	1	4	0	4	0.482	4	1	4_0.gif
99.003	1	3	0	3	0.533	3	1	3_0.gif
100.003	1	2	0	2	0.515	2	1	2_0.gif
101.003	1	4	0	4	0.527	4	1	4_0.gif
102.003	1	2	0	2	0.457	2	1	2_0.gif
103.003	1	3	0	3	0.575	3	1	3_0.gif
104.003	1	2	0	2	0.734	2	1	2_0.gif
105.003	1	1	0	2	0.007	1	0	1_0.gif
106.003	1	4	0	4	0.442	4	1	4_0.gif
107.003	1	3	0	3	0.382	3	1	3_0.gif
108.003	1	1	0	1	0.344	1	1	1_0.gif
109.003	1	2	0	2	0.325	2	1	2_0.gif
110.003	1	4	0	4	0.352	4	1	4_0.gif
111.003	1	2	0	2	0.456	2	1	2_0.gif
112.004	1	4	2	6	0	4	n/a	4_2.gif
113.004	1	1	2	6	0	2	n/a	1_2.gif
114.004	1	3	2	4	0.295	4	1	3_2.gif
115.004	1	1	2	1	0.26	1	1	1_2.gif
116.004	1	2	2	3	0.308	3	1	2_2.gif
117.004	1	4	2	1	0.229	1	1	4_2.gif
118.004	1	2	2	3	0.351	2	0	2_2.gif
119.004	1	4	2	2	0.512	4	0	4_2.gif
120.004	1	2	2	4	0.421	2	0	2_2.gif
121.004	1	3	2	2	0.453	4	0	3_2.gif
122.004	1	4	2	3	0.702	2	0	4_2.gif
123.004	1	3	2	6	0	3	n/a	3_2.gif
124.004	1	4	2	4	0.912	4	1	4_2.gif
125.004	1	2	2	4	0.007	3	0	2_2.gif
126.004	1	3	2	3	0.006	4	0	3_2.gif
127.004	1	2	2	1	0.561	2	0	2_2.gif
128.004	1	1	0	6	0	1	n/a	1_0.gif
129.004	1	4	0	1	0.389	4	0	4_0.gif
130.004	1	3	0	4	0.007	3	0	3_0.gif
131.004	1	4	0	4	0.464	4	1	4_0.gif
132.004	1	3	0	3	0.419	3	1	3_0.gif
133.004	1	2	0	2	0.465	2	1	2_0.gif
134.004	1	3	0	3	0.442	3	1	3_0.gif
135.004	1	2	0	2	0.383	2	1	2_0.gif
136.004	1	1	0	1	0.325	1	1	1_0.gif
137.004	1	4	0	4	0.316	4	1	4_0.gif
138.004	1	2	0	2	0.414	2	1	2_0.gif
139.004	1	3	0	3	0.573	3	1	3_0.gif
140.004	1	2	0	2	0.448	2	1	2_0.gif
141.004	1	3	0	3	0.567	3	1	3_0.gif
142.005	1	2	0	2	0.407	2	1	2_0.gif
143.005	1	4	0	4	0.472	4	1	4_0.gif
144.005	1	2	2	6	0	2	n/a	2_2.gif
145.005	1	4	2	6	0	4	n/a	4_2.gif
146.005	1	3	2	6	0	2	n/a	3_2.gif
147.005	1	2	2	2	0.3	4	0	2_2.gif
148.005	1	4	2	4	0.007	3	0	4_2.gif
149.005	1	3	2	1	0.007	2	0	3_2.gif
150.005	1	2	2	6	0	4	n/a	2_2.gif
151.005	1	3	2	3	0.846	3	1	3_2.gif
152.005	1	4	2	3	0.007	2	0	4_2.gif
153.007	1	3	2	3	0.609	3	1	3_2.gif
154.007	1	4	2	4	0.655	4	1	4_2.gif
155.007	1	1	2	3	0.435	3	1	1_2.gif
156.007	1	2	2	2	0.535	4	0	2_2.gif
157.007	1	1	2	1	0.622	1	1	1_2.gif
158.007	1	3	2	4	0.555	2	0	3_2.gif
159.007	1	1	2	3	0.355	1	0	1_2.gif
160.007	1	3	0	3	0.881	3	1	3_0.gif
161.007	1	4	0	3	0.007	4	0	4_0.gif
162.007	1	3	0	4	0.007	3	0	3_0.gif
163.007	1	1	0	1	0.545	1	1	1_0.gif
164.009	1	3	0	3	0.464	3	1	3_0.gif
165.009	1	4	0	4	0.45	4	1	4_0.gif
166.009	1	1	0	3	0.464	1	0	1_0.gif
167.009	1	2	0	1	0.006	2	0	2_0.gif
168.009	1	3	0	3	0.545	3	1	3_0.gif
169.009	1	4	0	4	0.575	4	1	4_0.gif
170.009	1	1	0	1	0.508	1	1	1_0.gif
171.009	1	3	0	3	0.461	3	1	3_0.gif
172.009	1	2	0	2	0.555	2	1	2_0.gif
173.009	1	4	0	4	0.553	4	1	4_0.gif
174.009	1	1	0	1	0.354	1	1	1_0.gif
175.009	1	4	0	4	0.48	4	1	4_0.gif
176.009	1	3	2	6	0	1	n/a	3_2.gif
177.009	1	2	2	6	0	4	n/a	2_2.gif
178.009	1	3	2	3	0.437	3	1	3_2.gif
179.009	1	4	2	2	0.364	2	1	4_2.gif
180.009	1	2	2	3	0.157	3	1	2_2.gif
181.009	1	4	2	2	0.129	4	0	4_2.gif
182.009	1	3	2	4	0.007	2	0	3_2.gif
183.009	1	2	2	2	0.007	4	0	2_2.gif
184.009	1	3	2	4	0.007	3	0	3_2.gif
185.01	1	1	2	2	0.006	2	1	1_2.gif
186.01	1	3	2	3	0.006	3	1	3_2.gif
187.01	1	2	2	1	0.007	1	1	2_2.gif
188.01	1	3	2	1	0.769	3	0	3_2.gif
189.01	1	4	2	1	0.006	2	0	4_2.gif
190.01	1	1	2	3	0.554	3	1	1_2.gif
191.01	1	2	2	2	0.696	4	0	2_2.gif
192.01	1	1	0	2	0.007	1	0	1_0.gif
193.01	1	3	0	1	0.006	3	0	3_0.gif
194.01	1	1	0	3	0.006	1	0	1_0.gif
195.01	1	4	0	4	0.601	4	1	4_0.gif
196.01	1	3	0	1	0.79	3	0	3_0.gif
197.01	1	4	0	6	0	4	n/a	4_0.gif
198.01	1	1	0	1	0.491	1	1	1_0.gif
199.01	1	4	0	4	0.516	4	1	4_0.gif
200.01	1	2	0	2	0.546	2	1	2_0.gif
201.01	1	4	0	4	0.499	4	1	4_0.gif
202.01	1	2	0	2	0.502	2	1	2_0.gif
203.01	1	3	0	3	0.658	3	1	3_0.gif
204.01	1	4	0	4	0.616	4	1	4_0.gif
205.01	1	2	0	2	0.675	2	1	2_0.gif
206.01	1	4	0	4	0.534	4	1	4_0.gif
207.01	1	3	0	3	0.513	3	1	3_0.gif
208.01	1	4	2	6	0	4	n/a	4_2.gif
209.01	1	2	2	6	0	3	n/a	2_2.gif
210.01	1	3	2	4	0.636	4	1	3_2.gif
211.01	1	1	2	2	0.658	2	1	1_2.gif
212.01	1	4	2	3	0.508	3	1	4_2.gif
213.01	1	2	2	2	0.569	1	0	2_2.gif
214.01	1	4	2	6	0	4	n/a	4_2.gif
215.01	1	2	2	2	0.438	2	1	2_2.gif
216.01	1	3	2	4	0.185	4	1	3_2.gif
217.011	1	4	2	2	0.007	2	1	4_2.gif
218.011	1	2	2	3	0.005	3	1	2_2.gif
219.011	1	3	2	4	0.005	4	1	3_2.gif
220.011	1	4	2	2	0.089	2	1	4_2.gif
221.011	1	3	2	3	0.006	3	1	3_2.gif
222.011	1	1	2	4	0.006	4	1	1_2.gif
223.011	1	3	2	3	0.05	3	1	3_2.gif
224.011	1	4	0	1	0.087	4	0	4_0.gif
225.011	1	2	0	4	0.16	2	0	2_0.gif
226.011	1	3	0	2	0.231	3	0	3_0.gif
227.011	1	4	0	3	0.075	4	0	4_0.gif
228.011	1	1	0	4	0.008	1	0	1_0.gif
229.011	1	3	0	3	0.623	3	1	3_0.gif
230.011	1	1	0	1	0.541	1	1	1_0.gif
231.011	1	4	0	4	0.452	4	1	4_0.gif
232.011	1	1	0	1	0.379	1	1	1_0.gif
233.011	1	3	0	3	0.666	3	1	3_0.gif
234.011	1	1	0	1	0.455	1	1	1_0.gif
235.011	1	4	0	4	0.491	4	1	4_0.gif
236.011	1	1	0	1	0.315	1	1	1_0.gif
237.011	1	4	0	4	0.42	4	1	4_0.gif
238.011	1	3	0	3	0.958	3	1	3_0.gif
239.011	1	2	0	3	0.006	2	0	2_0.gif
240.012	1	4	2	6	0	3	n/a	4_2.gif
241.012	1	1	2	6	0	2	n/a	1_2.gif
242.012	1	2	2	4	0.369	4	1	2_2.gif
243.012	1	4	2	1	0.344	1	1	4_2.gif
244.012	1	1	2	2	0.173	2	1	1_2.gif
245.012	1	2	2	4	0.006	4	1	2_2.gif
246.012	1	3	2	1	0.005	1	1	3_2.gif
247.012	1	4	2	2	0.005	2	1	4_2.gif
248.012	1	1	2	3	0.006	3	1	1_2.gif
249.013	1	4	2	1	0.473	4	0	4_2.gif
250.013	1	3	2	4	0.188	1	0	3_2.gif
251.013	1	1	2	3	0.007	4	0	1_2.gif
252.013	1	3	2	1	0.006	3	0	3_2.gif
253.013	1	1	2	6	0	1	n/a	1_2.gif
254.013	1	4	2	1	0.198	3	0	4_2.gif
255.013	1	1	2	3	0.007	1	0	1_2.gif
