onset	duration	nback_display	trial_type	response	response_time	correct_response	correct	stim_file
0	1	3	0	3	0.698	3	1	3_0.gif
1	1	2	0	2	0.492	2	1	2_0.gif
2	1	3	0	3	0.543	3	1	3_0.gif
3	1	2	0	2	0.421	2	1	2_0.gif
4	1	3	0	3	0.458	3	1	3_0.gif
5	1	4	0	4	0.482	4	1	4_0.gif
6	1	2	0	2	0.453	2	1	2_0.gif
7	1	1	0	1	0.528	1	1	1_0.gif
8	1	4	0	4	0.52	4	1	4_0.gif
9	1	1	0	1	0.377	1	1	1_0.gif
10	1	2	0	2	0.372	2	1	2_0.gif
11	1	1	0	1	0.496	1	1	1_0.gif
12	1	2	0	2	0.423	2	1	2_0.gif
13	1	1	0	1	0.447	1	1	1_0.gif
14	1	3	0	3	0.451	3	1	3_0.gif
15	1	2	0	2	0.414	2	1	2_0.gif
16	1	4	2	6	0	3	n/a	4_2.gif
17	1	3	2	6	0	2	n/a	3_2.gif
18	1	2	2	4	0.25	4	1	2_2.gif
19	1	4	2	3	0.265	3	1	4_2.gif
20	1	1	2	2	0.317	2	1	1_2.gif
21	1	4	2	4	0.311	4	1	4_2.gif
22	1	1	2	1	0.31	1	1	1_2.gif
23	1	2	2	4	0.345	4	1	2_2.gif
24	1	3	2	1	0.358	1	1	3_2.gif
25	1	4	2	2	0.325	2	1	4_2.gif
26	1	2	2	3	0.355	3	1	2_2.gif
27	1	1	2	4	0.316	4	1	1_2.gif
28	1	2	2	2	0.345	2	1	2_2.gif
29	1	3	2	1	0.341	1	1	3_2.gif
30	1	2	2	2	0.559	2	1	2_2.gif
31	1	3	2	3	0.469	3	1	3_2.gif
32	1	4	0	4	0.678	4	1	4_0.gif
33	1	3	0	3	0.373	3	1	3_0.gif
34	1	2	0	2	0.324	2	1	2_0.gif
35	1	3	0	3	0.422	3	1	3_0.gif
36	1	1	0	1	0.405	1	1	1_0.gif
37	1	2	0	2	0.463	2	1	2_0.gif
38	1	1	0	1	0.38	1	1	1_0.gif
39	1	3	0	3	0.409	3	1	3_0.gif
40	1	4	0	4	0.362	4	1	4_0.gif
41	1	3	0	3	0.436	3	1	3_0.gif
42	1	1	0	1	0.36	1	1	1_0.gif
43	1	2	0	2	0.331	2	1	2_0.gif
44	1	1	0	6	0	1	n/a	1_0.gif
45	1	4	0	1	0.006	4	0	4_0.gif
46	1	3	0	3	0.369	3	1	3_0.gif
47	1	2	0	2	0.28	2	1	2_0.gif
48	1	3	2	6	0	3	n/a	3_2.gif
49	1	1	2	6	0	2	n/a	1_2.gif
50	1	2	2	3	0.397	3	1	2_2.gif
51	1	4	2	1	0.262	1	1	4_2.gif
52	1	3	2	2	0.291	2	1	3_2.gif
53	1	2	2	4	0.309	4	1	2_2.gif
54	1	4	2	3	0.383	3	1	4_2.gif
55	1	1	2	2	0.375	2	1	1_2.gif
56	1	3	2	4	0.355	4	1	3_2.gif
57	1	2	2	1	0.3	1	1	2_2.gif
58	1	3	2	3	0.286	3	1	3_2.gif
59	1	2	2	2	0.229	2	1	2_2.gif
60	1	3	2	3	0.239	3	1	3_2.gif
61	1	1	2	2	0.184	2	1	1_2.gif
62	1	3	2	3	0.182	3	1	3_2.gif
63	1	4	2	1	0.171	1	1	4_2.gif
64	1	3	0	3	0.217	3	1	3_0.gif
65	1	4	0	4	0.41	4	1	4_0.gif
66	1	3	0	3	0.432	3	1	3_0.gif
67	1	4	0	4	0.443	4	1	4_0.gif
68	1	2	0	2	0.391	2	1	2_0.gif
69	1	1	0	1	0.312	1	1	1_0.gif
70	1	3	0	3	0.374	3	1	3_0.gif
71	1	1	0	1	0.492	1	1	1_0.gif
72	1	2	0	2	0.481	2	1	2_0.gif
73	1	1	0	1	0.413	1	1	1_0.gif
74	1	2	0	2	0.482	2	1	2_0.gif
75	1	3	0	3	0.458	3	1	3_0.gif
76	1	1	0	1	0.5	1	1	1_0.gif
77	1	4	0	4	0.372	4	1	4_0.gif
78	1	1	0	1	0.34	1	1	1_0.gif
79	1	2	0	2	0.348	2	1	2_0.gif
80.001	1	3	2	6	0	1	n/a	3_2.gif
81.001	1	4	2	3	0.353	2	0	4_2.gif
82.001	1	1	2	3	0.3	3	1	1_2.gif
83.001	1	2	2	4	0.201	4	1	2_2.gif
84.001	1	1	2	1	0.151	1	1	1_2.gif
85.001	1	3	2	6	0	2	n/a	3_2.gif
86.001	1	1	2	6	0	1	n/a	1_2.gif
87.001	1	3	2	3	0.268	3	1	3_2.gif
88.001	1	1	2	1	0.183	1	1	1_2.gif
89.001	1	3	2	3	0.179	3	1	3_2.gif
90.001	1	4	2	1	0.151	1	1	4_2.gif
91.001	1	2	2	3	0.133	3	1	2_2.gif
92.001	1	3	2	4	0.119	4	1	3_2.gif
93.001	1	2	2	2	0.091	2	1	2_2.gif
94.001	1	4	2	3	0.117	3	1	4_2.gif
95.001	1	3	2	2	0.102	2	1	3_2.gif
96.001	1	4	0	4	0.126	4	1	4_0.gif
97.001	1	1	0	1	0.368	1	1	1_0.gif
98.001	1	2	0	2	0.32	2	1	2_0.gif
99.001	1	3	0	3	0.389	3	1	3_0.gif
100.001	1	4	0	4	0.486	4	1	4_0.gif
101.001	1	2	0	2	0.379	2	1	2_0.gif
102.001	1	3	0	3	0.415	3	1	3_0.gif
103.001	1	1	0	1	0.422	1	1	1_0.gif
104.001	1	2	0	2	0.355	2	1	2_0.gif
105.001	1	1	0	1	0.42	1	1	1_0.gif
106.001	1	3	0	3	0.442	3	1	3_0.gif
107.001	1	4	0	4	0.381	4	1	4_0.gif
108.001	1	2	0	2	0.279	2	1	2_0.gif
109.001	1	4	0	4	0.383	4	1	4_0.gif
110.001	1	1	0	1	0.399	1	1	1_0.gif
111.001	1	4	0	4	0.373	4	1	4_0.gif
112.001	1	2	2	2	0.347	1	0	2_2.gif
113.001	1	4	2	6	0	4	n/a	4_2.gif
114.001	1	2	2	6	0	2	n/a	2_2.gif
115.001	1	1	2	6	0	4	n/a	1_2.gif
116.001	1	2	2	6	0	2	n/a	2_2.gif
117.001	1	4	2	1	0.201	1	1	4_2.gif
118.001	1	3	2	2	0.306	2	1	3_2.gif
119.001	1	4	2	4	0.179	4	1	4_2.gif
120.001	1	1	2	1	0.269	3	0	1_2.gif
121.001	1	2	2	2	0.241	4	0	2_2.gif
122.001	1	3	2	6	0	1	n/a	3_2.gif
123.001	1	1	2	6	0	2	n/a	1_2.gif
124.001	1	4	2	4	0.449	3	0	4_2.gif
125.001	1	2	2	6	0	1	n/a	2_2.gif
126.001	1	3	2	6	0	4	n/a	3_2.gif
127.001	1	1	2	6	0	2	n/a	1_2.gif
128.001	1	2	0	2	0.525	2	1	2_0.gif
129.001	1	3	0	3	0.451	3	1	3_0.gif
130.001	1	4	0	4	0.412	4	1	4_0.gif
131.001	1	3	0	3	0.437	3	1	3_0.gif
132.001	1	1	0	1	0.412	1	1	1_0.gif
133.001	1	3	0	3	0.453	3	1	3_0.gif
134.001	1	1	0	1	0.363	1	1	1_0.gif
135.001	1	4	0	4	0.37	4	1	4_0.gif
136.001	1	1	0	1	0.287	1	1	1_0.gif
137.001	1	4	0	4	0.336	4	1	4_0.gif
138.001	1	2	0	2	0.4	2	1	2_0.gif
139.001	1	1	0	1	0.866	1	1	1_0.gif
140.001	1	3	0	1	0.007	3	0	3_0.gif
141.001	1	2	0	2	0.393	2	1	2_0.gif
142.001	1	1	0	1	0.367	1	1	1_0.gif
143.001	1	3	0	3	0.368	3	1	3_0.gif
144.001	1	1	2	6	0	1	n/a	1_2.gif
145.001	1	4	2	6	0	3	n/a	4_2.gif
146.001	1	2	2	1	0.281	1	1	2_2.gif
147.001	1	1	2	4	0.212	4	1	1_2.gif
148.001	1	4	2	2	0.136	2	1	4_2.gif
149.001	1	2	2	6	0	1	n/a	2_2.gif
150.002	1	1	2	6	0	4	n/a	1_2.gif
151.002	1	2	2	6	0	2	n/a	2_2.gif
152.002	1	4	2	4	0.568	1	0	4_2.gif
153.002	1	2	2	6	0	2	n/a	2_2.gif
154.002	1	3	2	4	0.608	4	1	3_2.gif
155.002	1	4	2	2	0.428	2	1	4_2.gif
156.002	1	2	2	3	0.09	3	1	2_2.gif
157.002	1	4	2	2	0.189	4	0	4_2.gif
158.002	1	2	2	2	0.313	2	1	2_2.gif
159.002	1	4	2	4	0.506	4	1	4_2.gif
160.002	1	1	0	1	0.623	1	1	1_0.gif
161.002	1	2	0	2	0.475	2	1	2_0.gif
162.002	1	1	0	1	0.39	1	1	1_0.gif
163.002	1	3	0	3	0.431	3	1	3_0.gif
164.002	1	2	0	2	0.385	2	1	2_0.gif
165.002	1	3	0	3	0.382	3	1	3_0.gif
166.002	1	1	0	1	0.438	1	1	1_0.gif
167.002	1	4	0	4	0.433	4	1	4_0.gif
168.002	1	1	0	1	0.286	1	1	1_0.gif
169.002	1	2	0	2	0.428	2	1	2_0.gif
170.002	1	3	0	3	0.373	3	1	3_0.gif
171.002	1	4	0	4	0.442	4	1	4_0.gif
172.002	1	2	0	2	0.392	2	1	2_0.gif
173.002	1	4	0	4	0.451	4	1	4_0.gif
174.002	1	3	0	3	0.383	3	1	3_0.gif
175.002	1	4	0	4	0.448	4	1	4_0.gif
176.002	1	2	2	6	0	3	n/a	2_2.gif
177.002	1	3	2	6	0	4	n/a	3_2.gif
178.002	1	4	2	2	0.255	2	1	4_2.gif
179.002	1	1	2	3	0.321	3	1	1_2.gif
180.002	1	4	2	4	0.316	4	1	4_2.gif
181.002	1	2	2	1	0.345	1	1	2_2.gif
182.002	1	1	2	4	0.318	4	1	1_2.gif
183.002	1	2	2	2	0.334	2	1	2_2.gif
184.002	1	1	2	1	0.363	1	1	1_2.gif
185.002	1	4	2	2	0.487	2	1	4_2.gif
186.002	1	2	2	4	0.555	1	0	2_2.gif
187.002	1	1	2	1	0.842	4	0	1_2.gif
188.002	1	2	2	1	0.007	2	0	2_2.gif
189.002	1	3	2	3	0.971	1	0	3_2.gif
190.002	1	2	2	3	0.006	2	0	2_2.gif
191.002	1	4	2	3	0.007	3	1	4_2.gif
192.002	1	3	0	3	0.581	3	1	3_0.gif
193.002	1	2	0	2	0.329	2	1	2_0.gif
194.002	1	3	0	3	0.432	3	1	3_0.gif
195.002	1	2	0	2	0.339	2	1	2_0.gif
196.002	1	3	0	3	0.418	3	1	3_0.gif
197.002	1	4	0	4	0.437	4	1	4_0.gif
198.002	1	2	0	2	0.374	2	1	2_0.gif
199.002	1	1	0	1	0.35	1	1	1_0.gif
200.002	1	4	0	4	0.449	4	1	4_0.gif
201.002	1	1	0	1	0.406	1	1	1_0.gif
202.002	1	2	0	2	0.474	2	1	2_0.gif
203.002	1	1	0	1	0.481	1	1	1_0.gif
204.002	1	2	0	2	0.481	2	1	2_0.gif
205.002	1	1	0	1	0.418	1	1	1_0.gif
206.002	1	3	0	3	0.466	3	1	3_0.gif
207.002	1	2	0	2	0.437	2	1	2_0.gif
208.002	1	4	2	6	0	3	n/a	4_2.gif
209.002	1	3	2	6	0	2	n/a	3_2.gif
210.002	1	2	2	4	0.479	4	1	2_2.gif
211.002	1	4	2	3	0.332	3	1	4_2.gif
212.002	1	1	2	4	0.399	2	0	1_2.gif
213.002	1	4	2	2	0.78	4	0	4_2.gif
214.002	1	1	2	4	0.685	1	0	1_2.gif
215.002	1	2	2	1	0.321	4	0	2_2.gif
216.002	1	3	2	2	0.398	1	0	3_2.gif
217.002	1	4	2	2	0.409	2	1	4_2.gif
218.002	1	2	2	4	0.251	3	0	2_2.gif
219.002	1	1	2	3	0.007	4	0	1_2.gif
220.002	1	2	2	6	0	2	n/a	2_2.gif
221.002	1	3	2	2	0.849	1	0	3_2.gif
222.002	1	2	2	2	0.235	2	1	2_2.gif
223.002	1	3	2	3	0.771	3	1	3_2.gif
224.003	1	4	0	4	0.547	4	1	4_0.gif
225.003	1	3	0	3	0.431	3	1	3_0.gif
226.003	1	2	0	2	0.412	2	1	2_0.gif
227.003	1	3	0	3	0.435	3	1	3_0.gif
228.003	1	1	0	1	0.413	1	1	1_0.gif
229.003	1	2	0	2	0.41	2	1	2_0.gif
230.003	1	1	0	1	0.401	1	1	1_0.gif
231.003	1	3	0	3	0.439	3	1	3_0.gif
232.003	1	4	0	4	0.345	4	1	4_0.gif
233.003	1	3	0	3	0.478	3	1	3_0.gif
234.003	1	1	0	1	0.402	1	1	1_0.gif
235.003	1	2	0	2	0.442	2	1	2_0.gif
236.003	1	1	0	1	0.359	1	1	1_0.gif
237.003	1	4	0	4	0.449	4	1	4_0.gif
238.003	1	3	0	3	0.503	3	1	3_0.gif
239.003	1	2	0	2	0.378	2	1	2_0.gif
240.003	1	3	2	6	0	3	n/a	3_2.gif
241.003	1	1	2	6	0	2	n/a	1_2.gif
242.003	1	2	2	3	0.26	3	1	2_2.gif
243.003	1	4	2	1	0.279	1	1	4_2.gif
244.003	1	3	2	2	0.263	2	1	3_2.gif
245.003	1	2	2	4	0.293	4	1	2_2.gif
246.003	1	4	2	3	0.31	3	1	4_2.gif
247.003	1	1	2	2	0.359	2	1	1_2.gif
248.003	1	3	2	4	0.453	4	1	3_2.gif
249.003	1	2	2	1	0.51	1	1	2_2.gif
250.003	1	3	2	3	0.446	3	1	3_2.gif
251.003	1	2	2	2	0.35	2	1	2_2.gif
252.003	1	3	2	3	0.285	3	1	3_2.gif
253.003	1	1	2	2	0.285	2	1	1_2.gif
254.003	1	3	2	3	0.311	3	1	3_2.gif
255.003	1	4	2	1	0.281	1	1	4_2.gif
