onset	duration	nback_display	trial_type	response	response_time	correct_response	correct	stim_file
0	1	2	0	2	0.647	2	1	2_0.gif
1	1	1	0	1	0.41	1	1	1_0.gif
2	1	4	0	4	0.53	4	1	4_0.gif
3	1	2	0	2	0.377	2	1	2_0.gif
4	1	1	0	1	0.32	1	1	1_0.gif
5	1	4	0	4	0.352	4	1	4_0.gif
6	1	2	0	2	0.346	2	1	2_0.gif
7	1	3	0	3	0.387	3	1	3_0.gif
8	1	4	0	4	0.479	4	1	4_0.gif
9	1	3	0	3	0.406	3	1	3_0.gif
10	1	1	0	1	0.399	1	1	1_0.gif
11	1	3	0	3	0.36	3	1	3_0.gif
12	1	4	0	4	0.313	4	1	4_0.gif
13	1	1	0	1	0.363	1	1	1_0.gif
14	1	3	0	3	0.396	3	1	3_0.gif
15	1	1	0	1	0.455	1	1	1_0.gif
16	1	4	2	6	0	3	n/a	4_2.gif
17	1	3	2	6	0	1	n/a	3_2.gif
18.001	1	1	2	4	0.414	4	1	1_2.gif
19.001	1	4	2	3	0.413	3	1	4_2.gif
20.001	1	2	2	1	0.435	1	1	2_2.gif
21.001	1	3	2	4	0.522	4	1	3_2.gif
22.001	1	1	2	2	0.481	2	1	1_2.gif
23.001	1	3	2	3	0.666	3	1	3_2.gif
24.001	1	2	2	1	0.803	1	1	2_2.gif
25.001	1	4	2	3	0.916	3	1	4_2.gif
26.001	1	1	2	3	0.003	2	0	1_2.gif
27.001	1	3	2	6	0	4	n/a	3_2.gif
28.001	1	1	2	4	0.03	1	0	1_2.gif
29.001	1	4	2	6	0	3	n/a	4_2.gif
30.001	1	2	2	6	0	1	n/a	2_2.gif
31.001	1	4	2	2	0.561	4	0	4_2.gif
32.001	1	1	0	4	0.559	1	0	1_0.gif
33.001	1	3	0	1	0.531	3	0	3_0.gif
34.001	1	4	0	3	0.13	4	0	4_0.gif
35.001	1	3	0	3	0.556	3	1	3_0.gif
36.001	1	1	0	1	0.396	1	1	1_0.gif
37.001	1	2	0	2	0.314	2	1	2_0.gif
38.001	1	3	0	3	0.295	3	1	3_0.gif
39.001	1	1	0	1	0.397	1	1	1_0.gif
40.001	1	3	0	3	0.312	3	1	3_0.gif
41.001	1	1	0	1	0.397	1	1	1_0.gif
42.001	1	4	0	4	0.491	4	1	4_0.gif
43.001	1	2	0	2	0.336	2	1	2_0.gif
44.001	1	3	0	3	0.337	3	1	3_0.gif
45.001	1	1	0	1	0.372	1	1	1_0.gif
46.001	1	3	0	3	0.293	3	1	3_0.gif
47.001	1	1	0	1	0.303	1	1	1_0.gif
48.001	1	4	2	6	0	3	n/a	4_2.gif
49.001	1	3	2	6	0	1	n/a	3_2.gif
50.001	1	1	2	4	0.392	4	1	1_2.gif
51.001	1	2	2	3	0.292	3	1	2_2.gif
52.001	1	3	2	1	0.202	1	1	3_2.gif
53.001	1	1	2	2	0.265	2	1	1_2.gif
54.001	1	2	2	3	0.268	3	1	2_2.gif
55.001	1	3	2	1	0.407	1	1	3_2.gif
56.001	1	4	2	2	0.367	2	1	4_2.gif
57.001	1	1	2	3	0.427	3	1	1_2.gif
58.001	1	2	2	4	0.396	4	1	2_2.gif
59.001	1	1	2	4	0.245	1	0	1_2.gif
60.001	1	4	2	1	0.401	2	0	4_2.gif
61.001	1	2	2	2	0.524	1	0	2_2.gif
62.001	1	4	2	4	0.373	4	1	4_2.gif
63.001	1	1	2	6	0	2	n/a	1_2.gif
64.002	1	2	0	2	0.375	2	1	2_0.gif
65.002	1	1	0	1	0.313	1	1	1_0.gif
66.002	1	4	0	4	0.464	4	1	4_0.gif
67.002	1	1	0	1	0.43	1	1	1_0.gif
68.002	1	2	0	2	0.294	2	1	2_0.gif
69.002	1	1	0	1	0.372	1	1	1_0.gif
70.002	1	3	0	3	0.347	3	1	3_0.gif
71.002	1	4	0	4	0.256	4	1	4_0.gif
72.002	1	1	0	1	0.386	1	1	1_0.gif
73.002	1	4	0	4	0.455	4	1	4_0.gif
74.002	1	1	0	1	0.417	1	1	1_0.gif
75.002	1	3	0	3	0.31	3	1	3_0.gif
76.002	1	4	0	4	0.417	4	1	4_0.gif
77.002	1	3	0	3	0.411	3	1	3_0.gif
78.002	1	4	0	4	0.473	4	1	4_0.gif
79.002	1	2	0	2	0.387	2	1	2_0.gif
80.002	1	1	2	6	0	4	n/a	1_2.gif
81.002	1	4	2	6	0	2	n/a	4_2.gif
82.002	1	1	2	1	0.362	1	1	1_2.gif
83.002	1	4	2	4	0.531	4	1	4_2.gif
84.002	1	3	2	1	0.572	1	1	3_2.gif
85.002	1	4	2	4	0.554	4	1	4_2.gif
86.002	1	3	2	3	0.482	3	1	3_2.gif
87.002	1	2	2	4	0.348	4	1	2_2.gif
88.002	1	4	2	3	0.266	3	1	4_2.gif
89.002	1	1	2	2	0.218	2	1	1_2.gif
90.002	1	2	2	4	0.098	4	1	2_2.gif
91.002	1	1	2	1	0.19	1	1	1_2.gif
92.002	1	2	2	2	0.258	2	1	2_2.gif
93.002	1	4	2	1	0.37	1	1	4_2.gif
94.002	1	3	2	2	0.401	2	1	3_2.gif
95.002	1	4	2	4	0.314	4	1	4_2.gif
96.003	1	2	0	3	0.414	2	0	2_0.gif
97.003	1	1	0	2	0.12	1	0	1_0.gif
98.003	1	4	0	4	0.384	4	1	4_0.gif
99.003	1	3	0	3	0.28	3	1	3_0.gif
100.003	1	4	0	4	0.451	4	1	4_0.gif
101.003	1	3	0	3	0.365	3	1	3_0.gif
102.003	1	4	0	4	0.361	4	1	4_0.gif
103.003	1	1	0	1	0.396	1	1	1_0.gif
104.003	1	3	0	3	0.305	3	1	3_0.gif
105.003	1	1	0	1	0.457	1	1	1_0.gif
106.003	1	4	0	4	0.353	4	1	4_0.gif
107.003	1	1	0	1	0.38	1	1	1_0.gif
108.003	1	4	0	4	0.49	4	1	4_0.gif
109.003	1	2	0	2	0.326	2	1	2_0.gif
110.003	1	4	0	4	0.533	4	1	4_0.gif
111.003	1	2	0	2	0.388	2	1	2_0.gif
112.003	1	3	2	3	0.389	4	0	3_2.gif
113.003	1	1	2	6	0	2	n/a	1_2.gif
114.003	1	4	2	3	0.433	3	1	4_2.gif
115.003	1	1	2	1	0.394	1	1	1_2.gif
116.003	1	4	2	4	0.309	4	1	4_2.gif
117.003	1	1	2	1	0.474	1	1	1_2.gif
118.003	1	3	2	4	0.378	4	1	3_2.gif
119.003	1	4	2	1	0.399	1	1	4_2.gif
120.003	1	2	2	3	0.33	3	1	2_2.gif
121.003	1	1	2	4	0.314	4	1	1_2.gif
122.003	1	3	2	2	0.326	2	1	3_2.gif
123.003	1	1	2	1	0.291	1	1	1_2.gif
124.003	1	4	2	3	0.246	3	1	4_2.gif
125.003	1	2	2	1	0.276	1	1	2_2.gif
126.003	1	4	2	4	0.182	4	1	4_2.gif
127.003	1	1	2	2	0.249	2	1	1_2.gif
128.004	1	3	0	1	0.39	3	0	3_0.gif
129.004	1	1	0	1	0.639	1	1	1_0.gif
130.004	1	3	0	3	0.366	3	1	3_0.gif
131.004	1	4	0	4	0.457	4	1	4_0.gif
132.004	1	1	0	1	0.37	1	1	1_0.gif
133.004	1	3	0	3	0.287	3	1	3_0.gif
134.004	1	2	0	2	0.223	2	1	2_0.gif
135.004	1	3	0	3	0.396	3	1	3_0.gif
136.004	1	4	0	4	0.374	4	1	4_0.gif
137.004	1	3	0	3	0.35	3	1	3_0.gif
138.004	1	1	0	1	0.332	1	1	1_0.gif
139.004	1	3	0	3	0.276	3	1	3_0.gif
140.004	1	1	0	1	0.396	1	1	1_0.gif
141.004	1	2	0	6	0	2	n/a	2_0.gif
142.004	1	3	0	2	0.094	3	0	3_0.gif
143.004	1	1	0	1	0.484	1	1	1_0.gif
144.004	1	4	2	6	0	3	n/a	4_2.gif
145.004	1	3	2	6	0	1	n/a	3_2.gif
146.004	1	4	2	4	0.405	4	1	4_2.gif
147.004	1	1	2	3	0.306	3	1	1_2.gif
148.004	1	4	2	4	0.57	4	1	4_2.gif
149.004	1	3	2	1	0.591	1	1	3_2.gif
150.004	1	1	2	3	0.648	4	0	1_2.gif
151.004	1	3	2	6	0	3	n/a	3_2.gif
152.004	1	2	2	6	0	1	n/a	2_2.gif
153.004	1	1	2	3	0.3	3	1	1_2.gif
154.004	1	2	2	2	0.267	2	1	2_2.gif
155.004	1	4	2	1	0.245	1	1	4_2.gif
156.004	1	1	2	2	0.223	2	1	1_2.gif
157.004	1	4	2	4	0.224	4	1	4_2.gif
158.004	1	2	2	1	0.301	1	1	2_2.gif
159.004	1	4	2	4	0.29	4	1	4_2.gif
160.004	1	2	0	2	0.445	2	1	2_0.gif
161.004	1	1	0	1	0.345	1	1	1_0.gif
162.004	1	2	0	2	0.401	2	1	2_0.gif
163.004	1	1	0	1	0.337	1	1	1_0.gif
164.004	1	3	0	3	0.314	3	1	3_0.gif
165.004	1	4	0	4	0.298	4	1	4_0.gif
166.004	1	2	0	2	0.396	2	1	2_0.gif
167.004	1	4	0	4	0.569	4	1	4_0.gif
168.004	1	2	0	2	0.53	2	1	2_0.gif
169.004	1	1	0	1	0.53	1	1	1_0.gif
170.004	1	2	0	2	0.469	2	1	2_0.gif
171.004	1	1	0	1	0.4	1	1	1_0.gif
172.004	1	2	0	2	0.428	2	1	2_0.gif
173.004	1	3	0	3	0.462	3	1	3_0.gif
174.004	1	2	0	2	0.487	2	1	2_0.gif
175.004	1	1	0	1	0.438	1	1	1_0.gif
176.005	1	2	2	6	0	2	n/a	2_2.gif
177.005	1	3	2	6	0	1	n/a	3_2.gif
178.005	1	4	2	2	0.224	2	1	4_2.gif
179.005	1	2	2	3	0.311	3	1	2_2.gif
180.005	1	4	2	4	0.271	4	1	4_2.gif
181.005	1	3	2	2	0.348	2	1	3_2.gif
182.005	1	4	2	4	0.376	4	1	4_2.gif
183.005	1	1	2	3	0.488	3	1	1_2.gif
184.005	1	4	2	4	0.457	4	1	4_2.gif
185.005	1	2	2	1	0.54	1	1	2_2.gif
186.005	1	4	2	4	0.365	4	1	4_2.gif
187.005	1	3	2	2	0.424	2	1	3_2.gif
188.005	1	2	2	4	0.529	4	1	2_2.gif
189.005	1	1	2	3	0.487	3	1	1_2.gif
190.005	1	4	2	2	0.493	2	1	4_2.gif
191.005	1	2	2	1	0.407	1	1	2_2.gif
192.005	1	1	0	4	0.386	1	0	1_0.gif
193.005	1	4	0	1	0.264	4	0	4_0.gif
194.005	1	2	0	4	0.004	2	0	2_0.gif
195.005	1	3	0	3	0.375	3	1	3_0.gif
196.005	1	4	0	4	0.325	4	1	4_0.gif
197.005	1	3	0	3	0.37	3	1	3_0.gif
198.005	1	1	0	1	0.342	1	1	1_0.gif
199.005	1	3	0	3	0.373	3	1	3_0.gif
200.005	1	4	0	4	0.302	4	1	4_0.gif
201.005	1	1	0	1	0.34	1	1	1_0.gif
202.005	1	3	0	3	0.254	3	1	3_0.gif
203.005	1	1	0	1	0.42	1	1	1_0.gif
204.005	1	4	0	4	0.413	4	1	4_0.gif
205.005	1	3	0	3	0.315	3	1	3_0.gif
206.005	1	1	0	1	0.359	1	1	1_0.gif
207.005	1	4	0	4	0.419	4	1	4_0.gif
208.006	1	2	2	6	0	1	n/a	2_2.gif
209.006	1	3	2	6	0	4	n/a	3_2.gif
210.006	1	1	2	2	0.345	2	1	1_2.gif
211.006	1	3	2	3	0.269	3	1	3_2.gif
212.006	1	2	2	1	0.274	1	1	2_2.gif
213.006	1	4	2	3	0.253	3	1	4_2.gif
214.006	1	1	2	2	0.225	2	1	1_2.gif
215.006	1	3	2	4	0.209	4	1	3_2.gif
216.006	1	1	2	1	0.213	1	1	1_2.gif
217.006	1	4	2	3	0.214	3	1	4_2.gif
218.006	1	2	2	1	0.293	1	1	2_2.gif
219.006	1	4	2	4	0.285	4	1	4_2.gif
220.006	1	1	2	2	0.33	2	1	1_2.gif
221.006	1	3	2	4	0.431	4	1	3_2.gif
222.006	1	4	2	1	0.426	1	1	4_2.gif
223.006	1	3	2	3	0.338	3	1	3_2.gif
224.006	1	1	0	4	0.402	1	0	1_0.gif
225.006	1	2	0	1	0.015	2	0	2_0.gif
226.006	1	3	0	3	0.283	3	1	3_0.gif
227.006	1	1	0	1	0.378	1	1	1_0.gif
228.006	1	3	0	3	0.358	3	1	3_0.gif
229.006	1	1	0	1	0.358	1	1	1_0.gif
230.006	1	4	0	4	0.535	4	1	4_0.gif
231.006	1	2	0	2	0.353	2	1	2_0.gif
232.006	1	3	0	3	0.255	3	1	3_0.gif
233.006	1	1	0	1	0.305	1	1	1_0.gif
234.006	1	3	0	3	0.311	3	1	3_0.gif
235.006	1	1	0	1	0.278	1	1	1_0.gif
236.006	1	4	0	4	0.55	4	1	4_0.gif
237.006	1	3	0	3	0.345	3	1	3_0.gif
238.006	1	1	0	1	0.406	1	1	1_0.gif
239.006	1	2	0	2	0.306	2	1	2_0.gif
240.006	1	3	2	3	0.398	1	0	3_2.gif
241.006	1	1	2	6	0	2	n/a	1_2.gif
242.006	1	2	2	3	0.388	3	1	2_2.gif
243.006	1	3	2	1	0.339	1	1	3_2.gif
244.006	1	4	2	2	0.331	2	1	4_2.gif
245.006	1	1	2	3	0.36	3	1	1_2.gif
246.006	1	2	2	4	0.318	4	1	2_2.gif
247.006	1	1	2	1	0.274	1	1	1_2.gif
248.006	1	4	2	2	0.304	2	1	4_2.gif
249.006	1	2	2	1	0.383	1	1	2_2.gif
250.006	1	4	2	4	0.283	4	1	4_2.gif
251.006	1	1	2	2	0.379	2	1	1_2.gif
252.006	1	2	2	4	0.366	4	1	2_2.gif
253.006	1	1	2	1	0.395	1	1	1_2.gif
254.006	1	4	2	2	0.304	2	1	4_2.gif
255.006	1	1	2	4	0.638	1	0	1_2.gif
