onset	duration	nback_display	trial_type	response	response_time	correct_response	correct	stim_file
0	1	1	0	1	0.51	1	1	1_0.gif
1	1	4	0	3	0.574	4	0	4_0.gif
2	1	3	0	1	0.88	3	0	3_0.gif
3	1	1	0	1	0.006	1	1	1_0.gif
4	1	4	0	2	0.005	4	0	4_0.gif
5	1	3	0	1	0.429	3	0	3_0.gif
6	1	1	0	2	0.448	1	0	1_0.gif
7	1	4	0	3	0.415	4	0	4_0.gif
8.001	1	3	0	1	0.39	3	0	3_0.gif
9.001	1	2	0	4	0.798	2	0	2_0.gif
10.001	1	4	0	4	0.007	4	1	4_0.gif
11.001	1	2	0	4	0.653	2	0	2_0.gif
12.001	1	3	0	1	0.54	3	0	3_0.gif
13.001	1	4	0	3	0.598	4	0	4_0.gif
14.001	1	2	0	4	0.415	2	0	2_0.gif
15.001	1	4	0	3	0.606	4	0	4_0.gif
16.002	1	3	2	1	0.544	2	0	3_2.gif
17.002	1	2	2	6	0	4	n/a	2_2.gif
18.002	1	4	2	1	0.212	3	0	4_2.gif
19.002	1	3	2	4	0.166	2	0	3_2.gif
20.002	1	1	2	3	0.006	4	0	1_2.gif
21.002	1	2	2	1	0.005	3	0	2_2.gif
22.002	1	4	2	2	0.005	1	0	4_2.gif
23.002	1	2	2	4	0.006	2	0	2_2.gif
24.002	1	4	2	4	0.477	4	1	4_2.gif
25.002	1	3	2	3	0.394	2	0	3_2.gif
26.002	1	4	2	1	0.249	4	0	4_2.gif
27.002	1	2	2	3	0.318	3	1	2_2.gif
28.002	1	4	2	4	0.128	4	1	4_2.gif
29.002	1	3	2	1	0.621	2	0	3_2.gif
30.002	1	1	2	6	0	4	n/a	1_2.gif
31.002	1	3	2	1	0.717	3	0	3_2.gif
32.002	1	4	0	2	0.657	4	0	4_0.gif
33.002	1	2	0	3	0.212	2	0	2_0.gif
34.002	1	3	0	1	0.527	3	0	3_0.gif
35.002	1	2	0	4	0.502	2	0	2_0.gif
36.002	1	4	0	3	0.446	4	0	4_0.gif
37.002	1	1	0	2	0.621	1	0	1_0.gif
38.002	1	4	0	3	0.51	4	0	4_0.gif
39.002	1	3	0	1	0.507	3	0	3_0.gif
40.002	1	4	0	3	0.48	4	0	4_0.gif
41.002	1	2	0	4	0.62	2	0	2_0.gif
42.002	1	3	0	3	0.509	3	1	3_0.gif
43.002	1	4	0	1	0.034	4	0	4_0.gif
44.002	1	1	0	2	0.747	1	0	1_0.gif
45.002	1	3	0	1	0.63	3	0	3_0.gif
46.002	1	2	0	4	0.425	2	0	2_0.gif
47.002	1	4	0	3	0.328	4	0	4_0.gif
48.002	1	3	2	6	0	2	n/a	3_2.gif
49.002	1	2	2	6	0	4	n/a	2_2.gif
50.004	1	4	2	1	0.296	3	0	4_2.gif
51.004	1	1	2	4	0.159	2	0	1_2.gif
52.004	1	2	2	3	0.168	4	0	2_2.gif
53.004	1	4	2	2	0.075	1	0	4_2.gif
54.004	1	1	2	4	0.007	2	0	1_2.gif
55.004	1	2	2	3	0.007	4	0	2_2.gif
56.004	1	3	2	2	0.211	1	0	3_2.gif
57.004	1	4	2	4	0.083	2	0	4_2.gif
58.004	1	1	2	1	0.007	3	0	1_2.gif
59.004	1	4	2	3	0.021	4	0	4_2.gif
60.004	1	3	2	2	0.007	1	0	3_2.gif
61.004	1	1	2	3	0.008	4	0	1_2.gif
62.004	1	3	2	1	0.006	3	0	3_2.gif
63.004	1	2	2	2	0.045	1	0	2_2.gif
64.004	1	1	0	1	0.007	1	1	1_0.gif
65.004	1	4	0	2	0.006	4	0	4_0.gif
66.004	1	3	0	1	0.517	3	0	3_0.gif
67.004	1	4	0	3	0.514	4	0	4_0.gif
68.004	1	1	0	2	0.523	1	0	1_0.gif
69.004	1	4	0	3	0.583	4	0	4_0.gif
70.004	1	1	0	2	0.532	1	0	1_0.gif
71.005	1	3	0	1	0.453	3	0	3_0.gif
72.005	1	4	0	3	0.696	4	0	4_0.gif
73.005	1	2	0	4	0.577	2	0	2_0.gif
74.005	1	3	0	1	0.523	3	0	3_0.gif
75.005	1	2	0	4	0.556	2	0	2_0.gif
76.005	1	3	0	1	0.494	3	0	3_0.gif
77.005	1	1	0	2	0.685	1	0	1_0.gif
78.005	1	4	0	3	0.521	4	0	4_0.gif
79.005	1	3	0	1	0.62	3	0	3_0.gif
80.005	1	4	2	6	0	4	n/a	4_2.gif
81.005	1	3	2	6	0	3	n/a	3_2.gif
82.005	1	2	2	3	0.785	4	0	2_2.gif
83.005	1	3	2	1	0.492	3	0	3_2.gif
84.005	1	2	2	4	0.261	2	0	2_2.gif
85.005	1	1	2	1	0.128	3	0	1_2.gif
86.005	1	2	2	4	0.069	2	0	2_2.gif
87.005	1	3	2	2	0.007	1	0	3_2.gif
88.005	1	4	2	1	0.579	2	0	4_2.gif
89.005	1	1	2	3	0.552	3	1	1_2.gif
90.005	1	4	2	2	0.359	4	0	4_2.gif
91.005	1	1	2	3	0.316	1	0	1_2.gif
92.006	1	2	2	2	0.174	4	0	2_2.gif
93.006	1	3	2	1	0.28	1	1	3_2.gif
94.006	1	1	2	4	0.271	2	0	1_2.gif
95.006	1	4	2	2	0.546	3	0	4_2.gif
96.006	1	3	0	3	0.43	3	1	3_0.gif
97.006	1	2	0	1	0.007	2	0	2_0.gif
98.006	1	4	0	3	0.647	4	0	4_0.gif
99.006	1	2	0	4	0.775	2	0	2_0.gif
100.006	1	3	0	1	0.657	3	0	3_0.gif
101.006	1	4	0	3	0.543	4	0	4_0.gif
102.006	1	2	0	4	0.565	2	0	2_0.gif
103.006	1	4	0	3	0.586	4	0	4_0.gif
104.006	1	3	0	1	0.519	3	0	3_0.gif
105.006	1	2	0	4	0.524	2	0	2_0.gif
106.006	1	4	0	3	0.526	4	0	4_0.gif
107.006	1	2	0	4	0.527	2	0	2_0.gif
108.006	1	4	0	3	0.548	4	0	4_0.gif
109.006	1	1	0	2	0.611	1	0	1_0.gif
110.006	1	3	0	1	0.464	3	0	3_0.gif
111.006	1	1	0	2	0.615	1	0	1_0.gif
112.006	1	2	2	6	0	3	n/a	2_2.gif
113.006	1	4	2	6	0	1	n/a	4_2.gif
114.006	1	1	2	4	0.563	2	0	1_2.gif
115.006	1	3	2	3	0.281	4	0	3_2.gif
116.006	1	4	2	2	0.006	1	0	4_2.gif
117.006	1	3	2	1	0.007	3	0	3_2.gif
118.006	1	4	2	3	0.007	4	0	4_2.gif
119.006	1	2	2	3	0.698	3	1	2_2.gif
120.006	1	3	2	4	0.813	4	1	3_2.gif
121.006	1	1	2	4	0.007	2	0	1_2.gif
122.006	1	4	2	1	0.007	3	0	4_2.gif
123.007	1	2	2	2	0.006	1	0	2_2.gif
124.007	1	4	2	3	0.005	4	0	4_2.gif
125.007	1	1	2	3	0.546	2	0	1_2.gif
126.007	1	3	2	2	0.502	4	0	3_2.gif
127.007	1	4	2	1	0.404	1	1	4_2.gif
128.007	1	3	0	1	0.962	3	0	3_0.gif
129.007	1	2	0	1	0.007	2	0	2_0.gif
130.007	1	4	0	3	0.792	4	0	4_0.gif
131.007	1	3	0	1	0.477	3	0	3_0.gif
132.007	1	2	0	4	0.304	2	0	2_0.gif
133.007	1	3	0	1	0.513	3	0	3_0.gif
134.007	1	4	0	3	0.734	4	0	4_0.gif
135.007	1	2	0	4	0.595	2	0	2_0.gif
136.007	1	1	0	2	0.66	1	0	1_0.gif
137.007	1	2	0	4	0.714	2	0	2_0.gif
138.007	1	3	0	6	0	3	n/a	3_0.gif
139.007	1	2	0	1	0.097	2	0	2_0.gif
140.007	1	4	0	3	0.553	4	0	4_0.gif
141.007	1	2	0	4	0.61	2	0	2_0.gif
142.007	1	4	0	3	0.486	4	0	4_0.gif
143.007	1	1	0	2	0.637	1	0	1_0.gif
144.007	1	2	2	6	0	4	n/a	2_2.gif
145.007	1	4	2	6	0	1	n/a	4_2.gif
146.007	1	3	2	4	0.247	2	0	3_2.gif
147.007	1	2	2	3	0.038	4	0	2_2.gif
148.007	1	3	2	1	0.015	3	0	3_2.gif
149.007	1	4	2	1	0.801	2	0	4_2.gif
150.007	1	3	2	1	0.006	3	0	3_2.gif
151.007	1	1	2	1	0.642	4	0	1_2.gif
152.007	1	2	2	2	0.329	3	0	2_2.gif
153.007	1	4	2	4	0.386	1	0	4_2.gif
154.007	1	2	2	1	0.521	2	0	2_2.gif
155.007	1	4	2	3	0.564	4	0	4_2.gif
156.007	1	1	2	6	0	2	n/a	1_2.gif
157.007	1	3	2	6	0	4	n/a	3_2.gif
158.007	1	4	2	2	0.276	1	0	4_2.gif
159.007	1	3	2	1	0.153	3	0	3_2.gif
160.008	1	2	0	3	0.327	2	0	2_0.gif
161.008	1	1	0	4	0.006	1	0	1_0.gif
162.008	1	4	0	3	0.56	4	0	4_0.gif
163.008	1	1	0	2	0.53	1	0	1_0.gif
164.008	1	4	0	3	0.526	4	0	4_0.gif
165.008	1	2	0	4	0.523	2	0	2_0.gif
166.009	1	3	0	1	0.496	3	0	3_0.gif
167.009	1	1	0	2	0.51	1	0	1_0.gif
168.009	1	3	0	1	0.871	3	0	3_0.gif
169.009	1	4	0	1	0.006	4	0	4_0.gif
170.009	1	1	0	3	0.007	1	0	1_0.gif
171.009	1	2	0	4	0.948	2	0	2_0.gif
172.009	1	1	0	4	0.006	1	0	1_0.gif
173.009	1	4	0	3	0.509	4	0	4_0.gif
174.009	1	2	0	4	0.69	2	0	2_0.gif
175.009	1	3	0	1	0.519	3	0	3_0.gif
176.009	1	2	2	6	0	2	n/a	2_2.gif
177.009	1	3	2	6	0	3	n/a	3_2.gif
178.009	1	1	2	4	0.209	2	0	1_2.gif
179.009	1	3	2	1	0.107	3	0	3_2.gif
180.009	1	2	2	2	0.199	1	0	2_2.gif
181.009	1	3	2	1	0.43	3	0	3_2.gif
182.009	1	4	2	4	0.526	2	0	4_2.gif
183.009	1	3	2	1	0.236	3	0	3_2.gif
184.009	1	1	2	3	0.1	4	0	1_2.gif
185.009	1	3	2	2	0.007	3	0	3_2.gif
186.009	1	2	2	1	0.053	1	1	2_2.gif
187.01	1	1	2	4	0.098	3	0	1_2.gif
188.01	1	4	2	2	0.191	2	1	4_2.gif
189.01	1	3	2	3	0.169	1	0	3_2.gif
190.01	1	1	2	1	0.336	4	0	1_2.gif
191.01	1	4	2	2	0.227	3	0	4_2.gif
192.01	1	3	0	1	0.854	3	0	3_0.gif
193.01	1	1	0	1	0.007	1	1	1_0.gif
194.01	1	4	0	3	0.647	4	0	4_0.gif
195.01	1	3	0	1	0.543	3	0	3_0.gif
196.01	1	2	0	4	0.675	2	0	2_0.gif
197.01	1	4	0	6	0	4	n/a	4_0.gif
198.012	1	2	0	4	0.715	2	0	2_0.gif
199.012	1	3	0	1	0.52	3	0	3_0.gif
200.012	1	4	0	3	0.797	4	0	4_0.gif
201.012	1	2	0	4	0.659	2	0	2_0.gif
202.012	1	4	0	3	0.629	4	0	4_0.gif
203.012	1	3	0	1	0.636	3	0	3_0.gif
204.012	1	2	0	4	0.474	2	0	2_0.gif
205.012	1	4	0	3	0.922	4	0	4_0.gif
206.012	1	3	0	3	0.007	3	1	3_0.gif
207.012	1	1	0	2	0.584	1	0	1_0.gif
208.012	1	2	2	6	0	3	n/a	2_2.gif
209.012	1	4	2	6	0	1	n/a	4_2.gif
210.012	1	2	2	4	0.526	2	0	2_2.gif
211.012	1	4	2	3	0.274	4	0	4_2.gif
212.012	1	3	2	4	0.215	2	0	3_2.gif
213.012	1	4	2	3	0.229	4	0	4_2.gif
214.012	1	2	2	4	0.05	3	0	2_2.gif
215.012	1	4	2	6	0	4	n/a	4_2.gif
216.012	1	3	2	6	0	2	n/a	3_2.gif
217.012	1	1	2	6	0	4	n/a	1_2.gif
218.012	1	3	2	6	0	3	n/a	3_2.gif
219.013	1	4	2	6	0	1	n/a	4_2.gif
220.013	1	2	2	6	0	3	n/a	2_2.gif
221.013	1	3	2	6	0	4	n/a	3_2.gif
222.013	1	2	2	6	0	2	n/a	2_2.gif
223.013	1	4	2	2	0.022	3	0	4_2.gif
224.013	1	1	0	2	0.935	1	0	1_0.gif
225.013	1	4	0	2	0.007	4	0	4_0.gif
226.013	1	3	0	1	0.572	3	0	3_0.gif
227.013	1	4	0	3	0.716	4	0	4_0.gif
228.013	1	2	0	3	0.007	2	0	2_0.gif
229.013	1	3	0	1	0.621	3	0	3_0.gif
230.013	1	4	0	3	0.597	4	0	4_0.gif
231.013	1	1	0	2	0.664	1	0	1_0.gif
232.013	1	3	0	1	0.707	3	0	3_0.gif
233.013	1	2	0	4	0.645	2	0	2_0.gif
234.013	1	4	0	3	0.431	4	0	4_0.gif
235.013	1	3	0	1	0.527	3	0	3_0.gif
236.013	1	2	0	4	0.63	2	0	2_0.gif
237.013	1	4	0	3	0.487	4	0	4_0.gif
238.013	1	1	0	1	0.422	1	1	1_0.gif
239.013	1	2	0	6	0	2	n/a	2_0.gif
240.014	1	4	2	4	0.291	1	0	4_2.gif
241.014	1	1	2	6	0	2	n/a	1_2.gif
242.014	1	2	2	3	0.452	4	0	2_2.gif
243.014	1	3	2	2	0.296	1	0	3_2.gif
244.014	1	4	2	4	0.217	2	0	4_2.gif
245.014	1	1	2	1	0.124	3	0	1_2.gif
246.014	1	4	2	3	0.232	4	0	4_2.gif
247.014	1	3	2	2	0.074	1	0	3_2.gif
248.014	1	1	2	3	0.217	4	0	1_2.gif
249.014	1	3	2	1	0.007	3	0	3_2.gif
250.014	1	2	2	2	0.069	1	0	2_2.gif
251.014	1	1	2	1	0.198	3	0	1_2.gif
252.014	1	4	2	4	0.149	2	0	4_2.gif
253.014	1	3	2	2	0.042	1	0	3_2.gif
254.014	1	4	2	3	0.007	4	0	4_2.gif
255.014	1	1	2	1	0.006	3	0	1_2.gif
