onset	duration	nback_display	trial_type	response	response_time	correct_response	correct	stim_file
0	1	4	0	6	0	4	n/a	4_0.gif
1	1	3	0	2	0.027	3	0	3_0.gif
2	1	4	0	4	0.007	4	1	4_0.gif
3	1	3	0	4	0.376	3	0	3_0.gif
4	1	4	0	2	0.301	4	0	4_0.gif
5	1	1	0	1	0.475	1	1	1_0.gif
6	1	4	0	2	0.545	4	0	4_0.gif
7	1	2	0	6	0	2	n/a	2_0.gif
8	1	4	0	6	0	4	n/a	4_0.gif
9	1	1	0	6	0	1	n/a	1_0.gif
10	1	2	0	6	0	2	n/a	2_0.gif
11	1	3	0	6	0	3	n/a	3_0.gif
12	1	2	0	6	0	2	n/a	2_0.gif
13.001	1	3	0	6	0	3	n/a	3_0.gif
14.001	1	2	0	2	0.86	2	1	2_0.gif
15.001	1	4	0	2	0.006	4	0	4_0.gif
16.001	1	2	2	2	0.458	2	1	2_2.gif
17.001	1	3	2	6	0	4	n/a	3_2.gif
18.001	1	4	2	2	0.447	2	1	4_2.gif
19.001	1	2	2	6	0	3	n/a	2_2.gif
20.001	1	1	2	6	0	4	n/a	1_2.gif
21.001	1	2	2	6	0	2	n/a	2_2.gif
22.001	1	1	2	6	0	1	n/a	1_2.gif
23.001	1	4	2	6	0	2	n/a	4_2.gif
24.001	1	1	2	6	0	1	n/a	1_2.gif
25.001	1	2	2	6	0	4	n/a	2_2.gif
26.001	1	1	2	6	0	1	n/a	1_2.gif
27.001	1	3	2	6	0	2	n/a	3_2.gif
28.001	1	1	2	6	0	1	n/a	1_2.gif
29.001	1	2	2	3	0.339	3	1	2_2.gif
30.001	1	4	2	2	0.901	1	0	4_2.gif
31.001	1	1	2	2	0.007	2	1	1_2.gif
32.001	1	3	0	1	0.223	3	0	3_0.gif
33.001	1	2	0	2	0.552	2	1	2_0.gif
34.001	1	1	0	1	0.482	1	1	1_0.gif
35.001	1	4	0	4	0.356	4	1	4_0.gif
36.001	1	1	0	1	0.362	1	1	1_0.gif
37.001	1	3	0	3	0.43	3	1	3_0.gif
38.001	1	1	0	1	0.464	1	1	1_0.gif
39.001	1	4	0	4	0.377	4	1	4_0.gif
40.001	1	3	0	3	0.322	3	1	3_0.gif
41.001	1	4	0	4	0.419	4	1	4_0.gif
42.001	1	2	0	2	0.375	2	1	2_0.gif
43.001	1	3	0	3	0.384	3	1	3_0.gif
44.001	1	2	0	2	0.329	2	1	2_0.gif
45.001	1	4	0	4	0.353	4	1	4_0.gif
46.001	1	1	0	1	0.291	1	1	1_0.gif
47.001	1	4	0	4	0.293	4	1	4_0.gif
48.001	1	2	2	2	0.454	1	0	2_2.gif
49.001	1	3	2	6	0	4	n/a	3_2.gif
50.001	1	2	2	2	0.718	2	1	2_2.gif
51.001	1	1	2	3	0.76	3	1	1_2.gif
52.001	1	4	2	3	0.007	2	0	4_2.gif
53.001	1	1	2	1	0.061	1	1	1_2.gif
54.002	1	2	2	2	0.189	4	0	2_2.gif
55.002	1	4	2	6	0	1	n/a	4_2.gif
56.002	1	1	2	6	0	2	n/a	1_2.gif
57.002	1	4	2	2	0.432	4	0	4_2.gif
58.002	1	3	2	4	0.395	1	0	3_2.gif
59.002	1	1	2	1	0.429	4	0	1_2.gif
60.002	1	3	2	4	0.294	3	0	3_2.gif
61.002	1	2	2	3	0.334	1	0	2_2.gif
62.002	1	1	2	6	0	3	n/a	1_2.gif
63.002	1	3	2	3	0.233	2	0	3_2.gif
64.002	1	1	0	1	0.784	1	1	1_0.gif
65.002	1	3	0	1	0.009	3	0	3_0.gif
66.002	1	4	0	4	0.292	4	1	4_0.gif
67.002	1	2	0	2	0.401	2	1	2_0.gif
68.002	1	4	0	4	0.434	4	1	4_0.gif
69.002	1	1	0	1	0.38	1	1	1_0.gif
70.002	1	4	0	4	0.262	4	1	4_0.gif
71.002	1	2	0	2	0.369	2	1	2_0.gif
72.002	1	1	0	1	0.376	1	1	1_0.gif
73.002	1	3	0	3	0.373	3	1	3_0.gif
74.002	1	1	0	1	0.4	1	1	1_0.gif
75.003	1	3	0	3	0.444	3	1	3_0.gif
76.003	1	2	0	2	0.371	2	1	2_0.gif
77.003	1	1	0	1	0.37	1	1	1_0.gif
78.003	1	4	0	4	0.395	4	1	4_0.gif
79.003	1	1	0	1	0.327	1	1	1_0.gif
80.003	1	3	2	6	0	4	n/a	3_2.gif
81.003	1	2	2	6	0	1	n/a	2_2.gif
82.003	1	3	2	3	0.278	3	1	3_2.gif
83.003	1	4	2	2	0.315	2	1	4_2.gif
84.003	1	2	2	2	0.649	3	0	2_2.gif
85.003	1	3	2	3	0.63	4	0	3_2.gif
86.003	1	2	2	6	0	2	n/a	2_2.gif
87.003	1	4	2	6	0	3	n/a	4_2.gif
88.003	1	2	2	3	0.184	2	0	2_2.gif
89.003	1	4	2	6	0	4	n/a	4_2.gif
90.003	1	1	2	6	0	2	n/a	1_2.gif
91.003	1	3	2	6	0	4	n/a	3_2.gif
92.003	1	4	2	1	0.464	1	1	4_2.gif
93.003	1	3	2	3	0.747	3	1	3_2.gif
94.003	1	2	2	6	0	4	n/a	2_2.gif
95.003	1	4	2	3	0.329	3	1	4_2.gif
96.004	1	1	0	4	0.097	1	0	1_0.gif
97.004	1	3	0	3	0.401	3	1	3_0.gif
98.004	1	1	0	1	0.377	1	1	1_0.gif
99.004	1	4	0	4	0.362	4	1	4_0.gif
100.004	1	1	0	1	0.348	1	1	1_0.gif
101.004	1	2	0	2	0.323	2	1	2_0.gif
102.004	1	3	0	3	0.273	3	1	3_0.gif
103.004	1	2	0	2	0.33	2	1	2_0.gif
104.004	1	1	0	1	0.33	1	1	1_0.gif
105.004	1	2	0	2	0.352	2	1	2_0.gif
106.004	1	4	0	4	0.333	4	1	4_0.gif
107.004	1	1	0	1	0.335	1	1	1_0.gif
108.004	1	3	0	3	0.358	3	1	3_0.gif
109.004	1	4	0	4	0.296	4	1	4_0.gif
110.004	1	2	0	2	0.292	2	1	2_0.gif
111.004	1	3	0	3	0.326	3	1	3_0.gif
112.004	1	2	2	2	0.391	2	1	2_2.gif
113.004	1	4	2	6	0	3	n/a	4_2.gif
114.004	1	1	2	2	0.384	2	1	1_2.gif
115.004	1	3	2	4	0.618	4	1	3_2.gif
116.004	1	1	2	1	0.825	1	1	1_2.gif
117.005	1	2	2	1	0.007	3	0	2_2.gif
118.005	1	1	2	3	0.195	1	0	1_2.gif
119.005	1	3	2	2	0.16	2	1	3_2.gif
120.005	1	2	2	2	0.762	1	0	2_2.gif
121.005	1	3	2	6	0	3	n/a	3_2.gif
122.005	1	2	2	6	0	2	n/a	2_2.gif
123.005	1	3	2	3	0.291	3	1	3_2.gif
124.005	1	2	2	6	0	2	n/a	2_2.gif
125.005	1	4	2	6	0	3	n/a	4_2.gif
126.005	1	1	2	6	0	2	n/a	1_2.gif
127.005	1	2	2	4	0.351	4	1	2_2.gif
128.007	1	3	0	3	0.689	3	1	3_0.gif
129.007	1	1	0	1	0.426	1	1	1_0.gif
130.007	1	2	0	2	0.5	2	1	2_0.gif
131.007	1	1	0	1	0.364	1	1	1_0.gif
132.007	1	3	0	3	0.283	3	1	3_0.gif
133.007	1	4	0	4	0.332	4	1	4_0.gif
134.007	1	2	0	2	0.303	2	1	2_0.gif
135.007	1	3	0	3	0.36	3	1	3_0.gif
136.007	1	4	0	4	0.286	4	1	4_0.gif
137.007	1	1	0	1	0.383	1	1	1_0.gif
138.007	1	4	0	4	0.384	4	1	4_0.gif
139.007	1	2	0	2	0.319	2	1	2_0.gif
140.007	1	4	0	4	0.323	4	1	4_0.gif
141.007	1	2	0	2	0.355	2	1	2_0.gif
142.007	1	1	0	1	0.389	1	1	1_0.gif
143.007	1	2	0	2	0.405	2	1	2_0.gif
144.007	1	3	2	6	0	1	n/a	3_2.gif
145.007	1	2	2	3	0.685	2	0	2_2.gif
146.007	1	1	2	6	0	3	n/a	1_2.gif
147.007	1	3	2	2	0.044	2	1	3_2.gif
148.007	1	2	2	1	0.66	1	1	2_2.gif
149.007	1	4	2	3	0.564	3	1	4_2.gif
150.007	1	3	2	2	0.417	2	1	3_2.gif
151.007	1	2	2	2	0.526	4	0	2_2.gif
152.007	1	4	2	3	0.056	3	1	4_2.gif
153.007	1	3	2	3	0.352	2	0	3_2.gif
154.007	1	2	2	4	0.207	4	1	2_2.gif
155.007	1	3	2	3	0.667	3	1	3_2.gif
156.007	1	2	2	2	0.489	2	1	2_2.gif
157.007	1	1	2	6	0	3	n/a	1_2.gif
158.007	1	4	2	4	0.111	2	0	4_2.gif
159.008	1	2	2	6	0	1	n/a	2_2.gif
160.008	1	3	0	3	0.632	3	1	3_0.gif
161.008	1	1	0	1	0.415	1	1	1_0.gif
162.008	1	3	0	3	0.334	3	1	3_0.gif
163.008	1	4	0	4	0.305	4	1	4_0.gif
164.008	1	1	0	1	0.308	1	1	1_0.gif
165.008	1	3	0	3	0.34	3	1	3_0.gif
166.008	1	1	0	1	0.354	1	1	1_0.gif
167.008	1	3	0	3	0.313	3	1	3_0.gif
168.008	1	1	0	1	0.465	1	1	1_0.gif
169.008	1	2	0	2	0.639	2	1	2_0.gif
170.008	1	3	0	3	0.35	3	1	3_0.gif
171.008	1	2	0	2	0.356	2	1	2_0.gif
172.008	1	1	0	1	0.331	1	1	1_0.gif
173.008	1	3	0	3	0.318	3	1	3_0.gif
174.008	1	4	0	4	0.333	4	1	4_0.gif
175.008	1	3	0	3	0.34	3	1	3_0.gif
176.008	1	4	2	6	0	4	n/a	4_2.gif
177.008	1	1	2	4	0.994	3	0	1_2.gif
178.008	1	4	2	4	0.006	4	1	4_2.gif
179.008	1	1	2	1	0.042	1	1	1_2.gif
180.008	1	3	2	4	0.256	4	1	3_2.gif
181.008	1	4	2	1	0.768	1	1	4_2.gif
182.008	1	2	2	1	0.007	3	0	2_2.gif
183.008	1	3	2	4	0.43	4	1	3_2.gif
184.008	1	4	2	2	0.226	2	1	4_2.gif
185.008	1	1	2	3	0.213	3	1	1_2.gif
186.008	1	2	2	4	0.187	4	1	2_2.gif
187.008	1	1	2	1	0.588	1	1	1_2.gif
188.008	1	4	2	2	0.656	2	1	4_2.gif
189.008	1	3	2	4	0.481	1	0	3_2.gif
190.008	1	2	2	2	0.722	4	0	2_2.gif
191.008	1	4	2	3	0.442	3	1	4_2.gif
192.008	1	2	0	2	0.828	2	1	2_0.gif
193.008	1	4	0	2	0.007	4	0	4_0.gif
194.008	1	1	0	1	0.37	1	1	1_0.gif
195.008	1	3	0	3	0.319	3	1	3_0.gif
196.008	1	2	0	2	0.392	2	1	2_0.gif
197.008	1	3	0	3	0.33	3	1	3_0.gif
198.008	1	2	0	2	0.321	2	1	2_0.gif
199.008	1	1	0	1	0.366	1	1	1_0.gif
200.008	1	3	0	3	0.341	3	1	3_0.gif
201.009	1	1	0	1	0.335	1	1	1_0.gif
202.009	1	4	0	4	0.289	4	1	4_0.gif
203.009	1	3	0	3	0.328	3	1	3_0.gif
204.009	1	4	0	4	0.335	4	1	4_0.gif
205.009	1	3	0	3	0.348	3	1	3_0.gif
206.009	1	4	0	4	0.309	4	1	4_0.gif
207.009	1	1	0	1	0.349	1	1	1_0.gif
208.009	1	4	2	6	0	4	n/a	4_2.gif
209.009	1	2	2	4	0.742	1	0	2_2.gif
210.009	1	4	2	2	0.736	4	0	4_2.gif
211.009	1	1	2	2	0.565	2	1	1_2.gif
212.009	1	2	2	4	0.319	4	1	2_2.gif
213.009	1	3	2	1	0.303	1	1	3_2.gif
214.009	1	2	2	2	0.704	2	1	2_2.gif
215.009	1	3	2	6	0	3	n/a	3_2.gif
216.009	1	2	2	6	0	2	n/a	2_2.gif
217.009	1	4	2	3	0.404	3	1	4_2.gif
218.009	1	2	2	2	0.535	2	1	2_2.gif
219.009	1	3	2	3	0.65	4	0	3_2.gif
220.009	1	4	2	2	0.976	2	1	4_2.gif
221.009	1	2	2	2	0.007	3	0	2_2.gif
222.009	1	1	2	2	0.683	4	0	1_2.gif
223.009	1	2	2	6	0	2	n/a	2_2.gif
224.009	1	1	0	1	0.774	1	1	1_0.gif
225.009	1	4	0	1	0.007	4	0	4_0.gif
226.009	1	1	0	1	0.363	1	1	1_0.gif
227.009	1	2	0	2	0.366	2	1	2_0.gif
228.009	1	1	0	1	0.461	1	1	1_0.gif
229.009	1	3	0	1	0.007	3	0	3_0.gif
230.009	1	1	0	1	0.897	1	1	1_0.gif
231.009	1	2	0	1	0.006	2	0	2_0.gif
232.009	1	4	0	4	0.485	4	1	4_0.gif
233.009	1	1	0	1	0.375	1	1	1_0.gif
234.009	1	3	0	3	0.316	3	1	3_0.gif
235.009	1	2	0	2	0.342	2	1	2_0.gif
236.009	1	1	0	1	0.356	1	1	1_0.gif
237.009	1	4	0	4	0.365	4	1	4_0.gif
238.009	1	1	0	1	0.289	1	1	1_0.gif
239.009	1	3	0	3	0.383	3	1	3_0.gif
240.009	1	1	2	6	0	1	n/a	1_2.gif
241.009	1	4	2	1	0.556	3	0	4_2.gif
242.009	1	3	2	4	0.664	1	0	3_2.gif
243.009	1	4	2	3	0.554	4	0	4_2.gif
244.009	1	2	2	6	0	3	n/a	2_2.gif
245.009	1	3	2	6	0	4	n/a	3_2.gif
246.009	1	2	2	2	0.483	2	1	2_2.gif
247.009	1	4	2	3	0.406	3	1	4_2.gif
248.009	1	1	2	2	0.42	2	1	1_2.gif
249.009	1	4	2	4	0.429	4	1	4_2.gif
250.009	1	2	2	3	0.216	1	0	2_2.gif
251.009	1	3	2	1	0.115	4	0	3_2.gif
252.009	1	2	2	4	0.007	2	0	2_2.gif
253.009	1	1	2	2	0.168	3	0	1_2.gif
254.009	1	4	2	3	0.218	2	0	4_2.gif
255.009	1	1	2	1	0.157	1	1	1_2.gif
