onset	duration	nback_display	trial_type	response	response_time	correct_response	correct	stim_file
0	1	3	0	6	0	3	n/a	3_0.gif
1	1	2	0	3	0.089	2	0	2_0.gif
2	1	1	0	1	0.003	1	1	1_0.gif
3	1	2	0	1	0.003	2	0	2_0.gif
4	1	4	0	6	0	4	n/a	4_0.gif
5	1	1	0	6	0	1	n/a	1_0.gif
6	1	2	0	1	0.238	2	0	2_0.gif
7	1	1	0	6	0	1	n/a	1_0.gif
8	1	4	0	1	0.214	4	0	4_0.gif
9	1	2	0	3	0.156	2	0	2_0.gif
10	1	4	0	3	0.003	4	0	4_0.gif
11	1	1	0	3	0.003	1	0	1_0.gif
12	1	2	0	6	0	2	n/a	2_0.gif
13	1	1	0	4	0.054	1	0	1_0.gif
14	1	2	0	6	0	2	n/a	2_0.gif
15	1	1	0	1	0.267	1	1	1_0.gif
16	1	2	2	6	0	2	n/a	2_2.gif
17	1	4	2	6	0	1	n/a	4_2.gif
18	1	2	2	6	0	2	n/a	2_2.gif
19	1	3	2	4	0.082	4	1	3_2.gif
20	1	2	2	6	0	2	n/a	2_2.gif
21	1	1	2	4	0.645	3	0	1_2.gif
22	1	4	2	1	0.301	2	0	4_2.gif
23	1	1	2	6	0	1	n/a	1_2.gif
24	1	3	2	6	0	4	n/a	3_2.gif
25	1	1	2	6	0	1	n/a	1_2.gif
26	1	4	2	1	0.689	3	0	4_2.gif
27	1	1	2	4	0.602	1	0	1_2.gif
28	1	2	2	1	0.245	4	0	2_2.gif
29	1	4	2	6	0	1	n/a	4_2.gif
30	1	1	2	6	0	2	n/a	1_2.gif
31	1	2	2	6	0	4	n/a	2_2.gif
32	1	3	0	1	0.153	3	0	3_0.gif
33	1	1	0	6	0	1	n/a	1_0.gif
34	1	3	0	3	0.603	3	1	3_0.gif
35	1	2	0	6	0	2	n/a	2_0.gif
36	1	4	0	4	0.025	4	1	4_0.gif
37	1	2	0	1	0.076	2	0	2_0.gif
38	1	4	0	6	0	4	n/a	4_0.gif
39	1	3	0	3	0.889	3	1	3_0.gif
40	1	2	0	3	0.003	2	0	2_0.gif
41	1	3	0	2	0.003	3	0	3_0.gif
42	1	4	0	4	0.58	4	1	4_0.gif
43	1	3	0	3	0.423	3	1	3_0.gif
44	1	2	0	2	0.875	2	1	2_0.gif
45	1	3	0	2	0.003	3	0	3_0.gif
46	1	4	0	4	0.474	4	1	4_0.gif
47	1	1	0	1	0.685	1	1	1_0.gif
48.001	1	2	2	6	0	4	n/a	2_2.gif
49.001	1	3	2	6	0	1	n/a	3_2.gif
50.001	1	2	2	2	0.401	2	1	2_2.gif
51.001	1	1	2	3	0.169	3	1	1_2.gif
52.001	1	4	2	2	0.097	2	1	4_2.gif
53.001	1	1	2	1	0.385	1	1	1_2.gif
54.001	1	3	2	4	0.226	4	1	3_2.gif
55.001	1	2	2	1	0.003	1	1	2_2.gif
56.001	1	3	2	2	0.103	3	0	3_2.gif
57.001	1	2	2	3	0.003	2	0	2_2.gif
58.001	1	3	2	6	0	3	n/a	3_2.gif
59.001	1	2	2	6	0	2	n/a	2_2.gif
60.001	1	3	2	3	0.8	3	1	3_2.gif
61.001	1	1	2	3	0.003	2	0	1_2.gif
62.001	1	4	2	6	0	3	n/a	4_2.gif
63.001	1	2	2	6	0	1	n/a	2_2.gif
64.001	1	3	0	4	0.261	3	0	3_0.gif
65.001	1	1	0	6	0	1	n/a	1_0.gif
66.001	1	3	0	6	0	3	n/a	3_0.gif
67.001	1	1	0	1	0.302	1	1	1_0.gif
68.001	1	3	0	3	0.643	3	1	3_0.gif
69.001	1	4	0	2	0.746	4	0	4_0.gif
70.001	1	1	0	1	0.616	1	1	1_0.gif
71.001	1	4	0	6	0	4	n/a	4_0.gif
72.001	1	1	0	4	0.61	1	0	1_0.gif
73.001	1	3	0	1	0.252	3	0	3_0.gif
74.001	1	4	0	6	0	4	n/a	4_0.gif
75.001	1	1	0	4	0.142	1	0	1_0.gif
76.001	1	4	0	1	0.003	4	0	4_0.gif
77.001	1	1	0	1	0.344	1	1	1_0.gif
78.001	1	2	0	6	0	2	n/a	2_0.gif
79.001	1	3	0	2	0.08	3	0	3_0.gif
80.001	1	4	2	3	0.003	2	0	4_2.gif
81.001	1	1	2	6	0	3	n/a	1_2.gif
82.001	1	4	2	4	0.697	4	1	4_2.gif
83.001	1	1	2	1	0.205	1	1	1_2.gif
84.001	1	3	2	6	0	4	n/a	3_2.gif
85.001	1	2	2	6	0	1	n/a	2_2.gif
86.001	1	3	2	3	0.322	3	1	3_2.gif
87.001	1	1	2	2	0.228	2	1	1_2.gif
88.001	1	4	2	6	0	3	n/a	4_2.gif
89.001	1	1	2	1	0.244	1	1	1_2.gif
90.001	1	4	2	4	0.062	4	1	4_2.gif
91.001	1	2	2	6	0	1	n/a	2_2.gif
92.001	1	3	2	6	0	4	n/a	3_2.gif
93.001	1	1	2	2	0.076	2	1	1_2.gif
94.001	1	4	2	6	0	3	n/a	4_2.gif
95.001	1	2	2	1	0.622	1	1	2_2.gif
96.001	1	4	0	6	0	4	n/a	4_0.gif
97.001	1	1	0	4	0.565	1	0	1_0.gif
98.001	1	4	0	1	0.275	4	0	4_0.gif
99.001	1	1	0	4	0.147	1	0	1_0.gif
100.001	1	3	0	1	0.114	3	0	3_0.gif
101.001	1	4	0	3	0.081	4	0	4_0.gif
102.001	1	2	0	2	0.682	2	1	2_0.gif
103.001	1	4	0	4	0.938	4	1	4_0.gif
104.001	1	2	0	4	0.003	2	0	2_0.gif
105.001	1	4	0	2	0.003	4	0	4_0.gif
106.001	1	2	0	4	0.662	2	0	2_0.gif
107.001	1	4	0	2	0.825	4	0	4_0.gif
108.001	1	1	0	2	0.003	1	0	1_0.gif
109.001	1	4	0	4	0.623	4	1	4_0.gif
110.001	1	2	0	2	0.861	2	1	2_0.gif
111.001	1	4	0	2	0.003	4	0	4_0.gif
112.001	1	2	2	6	0	2	n/a	2_2.gif
113.001	1	1	2	6	0	4	n/a	1_2.gif
114.001	1	2	2	2	0.409	2	1	2_2.gif
115.001	1	4	2	1	0.283	1	1	4_2.gif
116.001	1	3	2	2	0.003	2	1	3_2.gif
117.001	1	4	2	4	0.003	4	1	4_2.gif
118.001	1	1	2	6	0	3	n/a	1_2.gif
119.001	1	2	2	6	0	4	n/a	2_2.gif
120.001	1	3	2	1	0.038	1	1	3_2.gif
121.001	1	4	2	2	0.003	2	1	4_2.gif
122.001	1	2	2	4	0.003	3	0	2_2.gif
123.001	1	1	2	6	0	4	n/a	1_2.gif
124.001	1	3	2	6	0	2	n/a	3_2.gif
125.001	1	4	2	1	0.2	1	1	4_2.gif
126.001	1	1	2	6	0	3	n/a	1_2.gif
127.001	1	4	2	6	0	4	n/a	4_2.gif
128.002	1	1	0	1	0.968	1	1	1_0.gif
129.002	1	4	0	1	0.003	4	0	4_0.gif
130.002	1	3	0	4	0.003	3	0	3_0.gif
131.002	1	2	0	2	0.758	2	1	2_0.gif
132.002	1	4	0	4	0.821	4	1	4_0.gif
133.002	1	1	0	1	0.752	1	1	1_0.gif
134.002	1	4	0	4	0.603	4	1	4_0.gif
135.002	1	2	0	6	0	2	n/a	2_0.gif
136.002	1	4	0	2	0.189	4	0	4_0.gif
137.002	1	3	0	3	0.722	3	1	3_0.gif
138.002	1	1	0	1	0.61	1	1	1_0.gif
139.002	1	4	0	4	0.592	4	1	4_0.gif
140.002	1	2	0	2	0.638	2	1	2_0.gif
141.002	1	1	0	1	0.437	1	1	1_0.gif
142.002	1	4	0	4	0.717	4	1	4_0.gif
143.002	1	1	0	1	0.521	1	1	1_0.gif
144.002	1	2	2	6	0	4	n/a	2_2.gif
145.002	1	1	2	6	0	1	n/a	1_2.gif
146.002	1	4	2	1	0.553	2	0	4_2.gif
147.002	1	2	2	2	0.377	1	0	2_2.gif
148.002	1	3	2	6	0	4	n/a	3_2.gif
149.002	1	4	2	6	0	2	n/a	4_2.gif
150.002	1	2	2	4	0.571	3	0	2_2.gif
151.002	1	3	2	2	0.308	4	0	3_2.gif
152.002	1	2	2	1	0.293	2	0	2_2.gif
153.002	1	4	2	6	0	3	n/a	4_2.gif
154.002	1	1	2	6	0	2	n/a	1_2.gif
155.002	1	2	2	1	0.984	4	0	2_2.gif
156.002	1	1	2	1	0.003	1	1	1_2.gif
157.002	1	3	2	2	0.003	2	1	3_2.gif
158.002	1	2	2	2	0.177	1	0	2_2.gif
159.002	1	4	2	4	0.073	3	0	4_2.gif
160.002	1	3	0	2	0.352	3	0	3_0.gif
161.002	1	4	0	4	0.123	4	1	4_0.gif
162.002	1	1	0	2	0.003	1	0	1_0.gif
163.002	1	3	0	1	0.003	3	0	3_0.gif
164.002	1	4	0	4	0.881	4	1	4_0.gif
165.002	1	2	0	4	0.003	2	0	2_0.gif
166.002	1	4	0	4	0.707	4	1	4_0.gif
167.002	1	2	0	2	0.355	2	1	2_0.gif
168.002	1	4	0	4	0.386	4	1	4_0.gif
169.002	1	2	0	2	0.327	2	1	2_0.gif
170.002	1	3	0	3	0.866	3	1	3_0.gif
171.002	1	4	0	3	0.003	4	0	4_0.gif
172.002	1	1	0	1	0.681	1	1	1_0.gif
173.002	1	4	0	4	0.689	4	1	4_0.gif
174.002	1	2	0	2	0.794	2	1	2_0.gif
175.002	1	1	0	2	0.003	1	0	1_0.gif
176.002	1	2	2	6	0	2	n/a	2_2.gif
177.002	1	1	2	6	0	1	n/a	1_2.gif
178.002	1	2	2	2	0.353	2	1	2_2.gif
179.002	1	3	2	1	0.561	1	1	3_2.gif
180.002	1	1	2	4	0.318	2	0	1_2.gif
181.002	1	4	2	6	0	3	n/a	4_2.gif
182.002	1	2	2	6	0	1	n/a	2_2.gif
183.002	1	1	2	6	0	4	n/a	1_2.gif
184.002	1	2	2	1	0.57	2	0	2_2.gif
185.002	1	4	2	2	0.486	1	0	4_2.gif
186.002	1	3	2	1	0.769	2	0	3_2.gif
187.002	1	2	2	4	0.483	4	1	2_2.gif
188.002	1	1	2	6	0	3	n/a	1_2.gif
189.002	1	2	2	1	0.489	2	0	2_2.gif
190.002	1	4	2	3	0.124	1	0	4_2.gif
191.002	1	1	2	1	0.003	2	0	1_2.gif
192.002	1	2	0	3	0.173	2	0	2_0.gif
193.002	1	1	0	2	0.477	1	0	1_0.gif
194.002	1	4	0	1	0.003	4	0	4_0.gif
195.002	1	2	0	1	0.801	2	0	2_0.gif
196.002	1	4	0	1	0.003	4	0	4_0.gif
197.002	1	1	0	1	0.632	1	1	1_0.gif
198.002	1	2	0	2	0.766	2	1	2_0.gif
199.002	1	1	0	1	0.705	1	1	1_0.gif
200.002	1	2	0	2	0.579	2	1	2_0.gif
201.002	1	1	0	1	0.356	1	1	1_0.gif
202.002	1	2	0	2	0.381	2	1	2_0.gif
203.002	1	4	0	4	0.702	4	1	4_0.gif
204.002	1	2	0	2	0.949	2	1	2_0.gif
205.002	1	3	0	2	0.003	3	0	3_0.gif
206.002	1	2	0	3	0.003	2	0	2_0.gif
207.002	1	1	0	2	0.003	1	0	1_0.gif
208.002	1	4	2	6	0	2	n/a	4_2.gif
209.003	1	1	2	6	0	1	n/a	1_2.gif
210.003	1	3	2	4	0.249	4	1	3_2.gif
211.003	1	1	2	1	0.052	1	1	1_2.gif
212.003	1	4	2	2	0.264	3	0	4_2.gif
213.003	1	1	2	6	0	1	n/a	1_2.gif
214.003	1	2	2	6	0	4	n/a	2_2.gif
215.003	1	4	2	1	0.313	1	1	4_2.gif
216.003	1	1	2	2	0.32	2	1	1_2.gif
217.003	1	2	2	4	0.822	4	1	2_2.gif
218.003	1	3	2	1	0.705	1	1	3_2.gif
219.003	1	1	2	3	0.382	2	0	1_2.gif
220.003	1	3	2	2	0.354	3	0	3_2.gif
221.003	1	2	2	6	0	1	n/a	2_2.gif
222.003	1	4	2	6	0	3	n/a	4_2.gif
223.003	1	2	2	6	0	2	n/a	2_2.gif
224.003	1	4	0	6	0	4	n/a	4_0.gif
225.003	1	3	0	2	0.184	3	0	3_0.gif
226.003	1	2	0	2	0.977	2	1	2_0.gif
227.003	1	3	0	2	0.003	3	0	3_0.gif
228.003	1	4	0	3	0.003	4	0	4_0.gif
229.003	1	3	0	4	0.003	3	0	3_0.gif
230.003	1	2	0	2	0.87	2	1	2_0.gif
231.003	1	3	0	2	0.003	3	0	3_0.gif
232.003	1	4	0	3	0.003	4	0	4_0.gif
233.003	1	1	0	1	0.763	1	1	1_0.gif
234.003	1	2	0	1	0.003	2	0	2_0.gif
235.003	1	3	0	3	0.647	3	1	3_0.gif
236.003	1	2	0	1	0.753	2	0	2_0.gif
237.003	1	1	0	1	0.003	1	1	1_0.gif
238.003	1	4	0	4	0.73	4	1	4_0.gif
239.003	1	1	0	1	0.566	1	1	1_0.gif
240.003	1	3	2	6	0	4	n/a	3_2.gif
241.003	1	2	2	6	0	1	n/a	2_2.gif
242.003	1	3	2	6	0	3	n/a	3_2.gif
243.003	1	2	2	4	0.038	2	0	2_2.gif
244.003	1	3	2	6	0	3	n/a	3_2.gif
245.003	1	2	2	3	0.322	2	0	2_2.gif
246.003	1	3	2	4	0.67	3	0	3_2.gif
247.003	1	1	2	6	0	2	n/a	1_2.gif
248.003	1	4	2	6	0	3	n/a	4_2.gif
249.003	1	2	2	1	0.611	1	1	2_2.gif
250.003	1	3	2	2	0.477	4	0	3_2.gif
251.003	1	1	2	3	0.433	2	0	1_2.gif
252.003	1	3	2	4	0.532	3	0	3_2.gif
253.003	1	1	2	6	0	1	n/a	1_2.gif
254.003	1	3	2	6	0	3	n/a	3_2.gif
255.003	1	4	2	1	0.324	1	1	4_2.gif
