onset	duration	nback_display	trial_type	response	response_time	correct_response	correct	stim_file
0	1	2	0	2	0.496	2	1	2_0.gif
1	1	1	0	1	0.34	1	1	1_0.gif
2	1	3	0	3	0.347	3	1	3_0.gif
3	1	2	0	2	0.302	2	1	2_0.gif
4	1	1	0	1	0.297	1	1	1_0.gif
5	1	2	0	2	0.329	2	1	2_0.gif
6	1	3	0	3	0.312	3	1	3_0.gif
7	1	2	0	2	0.314	2	1	2_0.gif
8	1	4	0	4	0.512	4	1	4_0.gif
9	1	1	0	1	0.284	1	1	1_0.gif
10	1	3	0	3	0.279	3	1	3_0.gif
11	1	4	0	4	0.467	4	1	4_0.gif
12	1	1	0	1	0.378	1	1	1_0.gif
13	1	4	0	4	0.474	4	1	4_0.gif
14	1	1	0	1	0.298	1	1	1_0.gif
15	1	4	0	4	0.396	4	1	4_0.gif
16.001	1	1	2	1	0.491	1	1	1_2.gif
17.001	1	3	2	6	0	4	n/a	3_2.gif
18.001	1	2	2	1	0.205	1	1	2_2.gif
19.001	1	1	2	3	0.024	3	1	1_2.gif
20.001	1	2	2	2	0.022	2	1	2_2.gif
21.001	1	4	2	1	0.025	1	1	4_2.gif
22.001	1	2	2	2	0.015	2	1	2_2.gif
23.008	1	4	2	4	0.027	4	1	4_2.gif
24.008	1	3	2	2	0.014	2	1	3_2.gif
25.008	1	1	2	4	0.022	4	1	1_2.gif
26.008	1	2	2	3	0.198	3	1	2_2.gif
27.008	1	4	2	1	0.147	1	1	4_2.gif
28.008	1	2	2	2	0.284	2	1	2_2.gif
29.008	1	1	2	4	0.212	4	1	1_2.gif
30.008	1	2	2	2	0.184	2	1	2_2.gif
31.008	1	4	2	1	0.18	1	1	4_2.gif
32.009	1	2	0	2	0.157	2	1	2_0.gif
33.009	1	3	0	3	0.409	3	1	3_0.gif
34.009	1	1	0	1	0.338	1	1	1_0.gif
35.01	1	4	0	4	0.398	4	1	4_0.gif
36.01	1	2	0	2	0.347	2	1	2_0.gif
37.01	1	3	0	3	0.34	3	1	3_0.gif
38.01	1	4	0	4	0.388	4	1	4_0.gif
39.01	1	2	0	2	0.321	2	1	2_0.gif
40.01	1	1	0	1	0.266	1	1	1_0.gif
41.01	1	2	0	2	0.378	2	1	2_0.gif
42.01	1	4	0	4	0.436	4	1	4_0.gif
43.01	1	1	0	1	0.357	1	1	1_0.gif
44.01	1	3	0	3	0.281	3	1	3_0.gif
45.01	1	4	0	4	0.369	4	1	4_0.gif
46.01	1	2	0	2	0.279	2	1	2_0.gif
47.01	1	4	0	4	0.433	4	1	4_0.gif
48.011	1	1	2	6	0	2	n/a	1_2.gif
49.011	1	4	2	6	0	4	n/a	4_2.gif
50.011	1	2	2	1	0.196	1	1	2_2.gif
51.011	1	4	2	4	0.211	4	1	4_2.gif
52.011	1	2	2	2	0.425	2	1	2_2.gif
53.011	1	3	2	4	0.447	4	1	3_2.gif
54.011	1	4	2	2	0.495	2	1	4_2.gif
55.011	1	2	2	3	0.533	3	1	2_2.gif
56.011	1	3	2	4	0.406	4	1	3_2.gif
57.011	1	2	2	2	0.483	2	1	2_2.gif
58.011	1	1	2	3	0.568	3	1	1_2.gif
59.011	1	3	2	2	0.589	2	1	3_2.gif
60.011	1	1	2	1	0.535	1	1	1_2.gif
61.011	1	2	2	3	0.642	3	1	2_2.gif
62.011	1	3	2	1	0.555	1	1	3_2.gif
63.011	1	2	2	2	0.726	2	1	2_2.gif
64.012	1	1	0	2	0.014	1	0	1_0.gif
65.012	1	2	0	1	0.015	2	0	2_0.gif
66.012	1	3	0	3	0.375	3	1	3_0.gif
67.012	1	2	0	2	0.404	2	1	2_0.gif
68.012	1	4	0	4	0.436	4	1	4_0.gif
69.012	1	3	0	3	0.333	3	1	3_0.gif
70.012	1	1	0	1	0.292	1	1	1_0.gif
71.012	1	3	0	3	0.374	3	1	3_0.gif
72.012	1	1	0	1	0.311	1	1	1_0.gif
73.012	1	4	0	4	0.372	4	1	4_0.gif
74.012	1	2	0	2	0.365	2	1	2_0.gif
75.012	1	3	0	3	0.33	3	1	3_0.gif
76.012	1	1	0	1	0.284	1	1	1_0.gif
77.012	1	4	0	4	0.394	4	1	4_0.gif
78.012	1	1	0	1	0.329	1	1	1_0.gif
79.012	1	2	0	2	0.369	2	1	2_0.gif
80.013	1	1	2	1	0.371	1	1	1_2.gif
81.013	1	3	2	6	0	2	n/a	3_2.gif
82.013	1	1	2	1	0.382	1	1	1_2.gif
83.013	1	4	2	3	0.355	3	1	4_2.gif
84.013	1	3	2	1	0.432	1	1	3_2.gif
85.013	1	4	2	4	0.43	4	1	4_2.gif
86.013	1	2	2	3	0.556	3	1	2_2.gif
87.013	1	3	2	4	0.683	4	1	3_2.gif
88.013	1	4	2	2	0.533	2	1	4_2.gif
89.013	1	1	2	6	0	3	n/a	1_2.gif
90.013	1	4	2	4	0.197	4	1	4_2.gif
91.013	1	3	2	1	0.188	1	1	3_2.gif
92.013	1	1	2	3	0.069	4	0	1_2.gif
93.013	1	3	2	6	0	3	n/a	3_2.gif
94.013	1	2	2	1	0.145	1	1	2_2.gif
95.013	1	1	2	3	0.179	3	1	1_2.gif
96.014	1	3	0	2	0.33	3	0	3_0.gif
97.014	1	4	0	3	0.014	4	0	4_0.gif
98.014	1	1	0	4	0.054	1	0	1_0.gif
99.014	1	3	0	3	0.379	3	1	3_0.gif
100.014	1	4	0	4	0.372	4	1	4_0.gif
101.014	1	1	0	1	0.323	1	1	1_0.gif
102.014	1	4	0	4	0.335	4	1	4_0.gif
103.014	1	3	0	3	0.352	3	1	3_0.gif
104.014	1	4	0	4	0.871	4	1	4_0.gif
105.014	1	2	0	4	0.014	2	0	2_0.gif
106.014	1	4	0	4	0.49	4	1	4_0.gif
107.014	1	2	0	2	0.34	2	1	2_0.gif
108.014	1	4	0	4	0.362	4	1	4_0.gif
109.014	1	2	0	2	0.322	2	1	2_0.gif
110.014	1	4	0	4	0.505	4	1	4_0.gif
111.014	1	2	0	2	0.363	2	1	2_0.gif
112.014	1	3	2	6	0	4	n/a	3_2.gif
113.015	1	1	2	6	0	2	n/a	1_2.gif
114.015	1	3	2	3	0.186	3	1	3_2.gif
115.015	1	4	2	1	0.253	1	1	4_2.gif
116.015	1	1	2	3	0.429	3	1	1_2.gif
117.015	1	4	2	4	0.486	4	1	4_2.gif
118.015	1	1	2	1	0.455	1	1	1_2.gif
119.015	1	2	2	4	0.401	4	1	2_2.gif
120.015	1	3	2	1	0.356	1	1	3_2.gif
121.015	1	1	2	2	0.184	2	1	1_2.gif
122.015	1	3	2	3	0.19	3	1	3_2.gif
123.015	1	2	2	1	0.141	1	1	2_2.gif
124.015	1	4	2	3	0.174	3	1	4_2.gif
125.015	1	3	2	2	0.157	2	1	3_2.gif
126.015	1	2	2	4	0.114	4	1	2_2.gif
127.015	1	3	2	3	0.291	3	1	3_2.gif
128.015	1	1	0	2	0.17	1	0	1_0.gif
129.015	1	2	0	2	0.486	2	1	2_0.gif
130.015	1	3	0	3	0.304	3	1	3_0.gif
131.015	1	2	0	2	0.348	2	1	2_0.gif
132.015	1	4	0	4	0.409	4	1	4_0.gif
133.015	1	3	0	3	0.358	3	1	3_0.gif
134.015	1	4	0	4	0.474	4	1	4_0.gif
135.015	1	3	0	3	0.39	3	1	3_0.gif
136.015	1	4	0	4	0.364	4	1	4_0.gif
137.015	1	3	0	3	0.313	3	1	3_0.gif
138.015	1	4	0	4	0.397	4	1	4_0.gif
139.015	1	3	0	3	0.288	3	1	3_0.gif
140.015	1	4	0	4	0.288	4	1	4_0.gif
141.015	1	1	0	1	0.395	1	1	1_0.gif
142.015	1	4	0	4	0.36	4	1	4_0.gif
143.015	1	2	0	2	0.392	2	1	2_0.gif
144.016	1	3	2	3	0.371	4	0	3_2.gif
145.016	1	4	2	6	0	2	n/a	4_2.gif
146.016	1	1	2	3	0.392	3	1	1_2.gif
147.016	1	2	2	4	0.386	4	1	2_2.gif
148.016	1	3	2	1	0.486	1	1	3_2.gif
149.016	1	4	2	2	0.475	2	1	4_2.gif
150.016	1	3	2	3	0.555	3	1	3_2.gif
151.016	1	2	2	4	0.515	4	1	2_2.gif
152.016	1	4	2	3	0.511	3	1	4_2.gif
153.016	1	3	2	2	0.432	2	1	3_2.gif
154.016	1	1	2	4	0.435	4	1	1_2.gif
155.016	1	3	2	3	0.562	3	1	3_2.gif
156.016	1	4	2	1	0.248	1	1	4_2.gif
157.016	1	1	2	6	0	3	n/a	1_2.gif
158.017	1	4	2	6	0	4	n/a	4_2.gif
159.017	1	2	2	1	0.203	1	1	2_2.gif
160.017	1	1	0	4	0.124	1	0	1_0.gif
161.017	1	3	0	3	0.41	3	1	3_0.gif
162.017	1	4	0	4	0.377	4	1	4_0.gif
163.017	1	1	0	1	0.354	1	1	1_0.gif
164.017	1	4	0	4	0.328	4	1	4_0.gif
165.017	1	2	0	2	0.34	2	1	2_0.gif
166.017	1	3	0	3	0.32	3	1	3_0.gif
167.017	1	1	0	1	0.288	1	1	1_0.gif
168.017	1	4	0	4	0.357	4	1	4_0.gif
169.017	1	2	0	2	0.327	2	1	2_0.gif
170.017	1	3	0	3	0.295	3	1	3_0.gif
171.017	1	2	0	2	0.29	2	1	2_0.gif
172.017	1	4	0	4	0.404	4	1	4_0.gif
173.017	1	2	0	2	0.389	2	1	2_0.gif
174.017	1	1	0	1	0.326	1	1	1_0.gif
175.017	1	4	0	4	0.381	4	1	4_0.gif
176.018	1	1	2	6	0	1	n/a	1_2.gif
177.018	1	4	2	6	0	4	n/a	4_2.gif
178.02	1	1	2	1	0.173	1	1	1_2.gif
179.02	1	3	2	4	0.183	4	1	3_2.gif
180.02	1	1	2	1	0.286	1	1	1_2.gif
181.02	1	4	2	3	0.279	3	1	4_2.gif
182.02	1	1	2	1	0.241	1	1	1_2.gif
183.02	1	4	2	4	0.173	4	1	4_2.gif
184.02	1	1	2	1	0.059	1	1	1_2.gif
185.02	1	3	2	4	0.088	4	1	3_2.gif
186.02	1	1	2	1	0.014	1	1	1_2.gif
187.02	1	3	2	3	0.171	3	1	3_2.gif
188.02	1	2	2	1	0.207	1	1	2_2.gif
189.02	1	1	2	3	0.168	3	1	1_2.gif
190.02	1	3	2	2	0.095	2	1	3_2.gif
191.02	1	2	2	1	0.159	1	1	2_2.gif
192.02	1	1	0	3	0.081	1	0	1_0.gif
193.02	1	2	0	1	0.016	2	0	2_0.gif
194.02	1	3	0	3	0.301	3	1	3_0.gif
195.02	1	2	0	2	0.365	2	1	2_0.gif
196.02	1	4	0	4	0.566	4	1	4_0.gif
197.02	1	1	0	1	0.364	1	1	1_0.gif
198.02	1	3	0	3	0.329	3	1	3_0.gif
199.02	1	4	0	4	0.405	4	1	4_0.gif
200.02	1	1	0	1	0.456	1	1	1_0.gif
201.02	1	4	0	4	0.39	4	1	4_0.gif
202.02	1	1	0	1	0.303	1	1	1_0.gif
203.02	1	4	0	4	0.308	4	1	4_0.gif
204.02	1	1	0	1	0.382	1	1	1_0.gif
205.02	1	3	0	3	0.412	3	1	3_0.gif
206.02	1	2	0	2	0.37	2	1	2_0.gif
207.02	1	1	0	1	0.298	1	1	1_0.gif
208.021	1	2	2	6	0	2	n/a	2_2.gif
209.021	1	4	2	6	0	1	n/a	4_2.gif
210.021	1	2	2	2	0.268	2	1	2_2.gif
211.021	1	4	2	4	0.231	4	1	4_2.gif
212.021	1	3	2	2	0.302	2	1	3_2.gif
213.021	1	1	2	4	0.293	4	1	1_2.gif
214.021	1	2	2	3	0.351	3	1	2_2.gif
215.021	1	4	2	1	0.241	1	1	4_2.gif
216.021	1	2	2	2	0.227	2	1	2_2.gif
217.021	1	1	2	4	0.205	4	1	1_2.gif
218.021	1	2	2	2	0.188	2	1	2_2.gif
219.021	1	4	2	1	0.133	1	1	4_2.gif
220.021	1	2	2	2	0.115	2	1	2_2.gif
221.021	1	3	2	4	0.099	4	1	3_2.gif
222.021	1	1	2	2	0.128	2	1	1_2.gif
223.021	1	4	2	3	0.092	3	1	4_2.gif
224.022	1	2	0	1	0.014	2	0	2_0.gif
225.022	1	3	0	3	0.404	3	1	3_0.gif
226.022	1	4	0	4	0.452	4	1	4_0.gif
227.022	1	2	0	2	0.3	2	1	2_0.gif
228.022	1	1	0	1	0.326	1	1	1_0.gif
229.022	1	2	0	2	0.366	2	1	2_0.gif
230.022	1	4	0	4	0.431	4	1	4_0.gif
231.022	1	1	0	1	0.416	1	1	1_0.gif
232.022	1	3	0	3	0.364	3	1	3_0.gif
233.022	1	4	0	4	0.323	4	1	4_0.gif
234.022	1	2	0	2	0.354	2	1	2_0.gif
235.022	1	4	0	4	0.338	4	1	4_0.gif
236.022	1	1	0	1	0.382	1	1	1_0.gif
237.022	1	4	0	4	0.377	4	1	4_0.gif
238.023	1	2	0	2	0.407	2	1	2_0.gif
239.023	1	4	0	4	0.412	4	1	4_0.gif
240.024	1	2	2	6	0	2	n/a	2_2.gif
241.024	1	3	2	6	0	4	n/a	3_2.gif
242.024	1	4	2	2	0.209	2	1	4_2.gif
243.024	1	2	2	3	0.25	3	1	2_2.gif
244.024	1	3	2	4	0.264	4	1	3_2.gif
245.024	1	2	2	2	0.301	2	1	2_2.gif
246.024	1	1	2	3	0.266	3	1	1_2.gif
247.024	1	3	2	2	0.193	2	1	3_2.gif
248.024	1	1	2	3	0.32	1	0	1_2.gif
249.024	1	2	2	6	0	3	n/a	2_2.gif
250.024	1	3	2	1	0.291	1	1	3_2.gif
251.024	1	2	2	2	0.182	2	1	2_2.gif
252.024	1	1	2	3	0.308	3	1	1_2.gif
253.024	1	2	2	2	0.232	2	1	2_2.gif
254.024	1	3	2	1	0.082	1	1	3_2.gif
255.024	1	2	2	2	0.107	2	1	2_2.gif
