onset	duration	nback_display	trial_type	response	response_time	correct_response	correct	stim_file
0	1	2	0	2	0.977	2	1	2_0.gif
1	1	1	0	2	0.003	1	0	1_0.gif
2	1	2	0	2	0.371	2	1	2_0.gif
3	1	1	0	1	0.442	1	1	1_0.gif
4	1	2	0	2	0.368	2	1	2_0.gif
5	1	3	0	3	0.508	3	1	3_0.gif
6	1	2	0	2	0.493	2	1	2_0.gif
7	1	1	0	1	0.401	1	1	1_0.gif
8	1	4	0	4	0.539	4	1	4_0.gif
9	1	2	0	2	0.431	2	1	2_0.gif
10	1	4	0	4	0.488	4	1	4_0.gif
11	1	1	0	1	0.521	1	1	1_0.gif
12	1	2	0	2	0.367	2	1	2_0.gif
13	1	4	0	4	0.434	4	1	4_0.gif
14	1	2	0	2	0.39	2	1	2_0.gif
15	1	1	0	1	0.348	1	1	1_0.gif
16	1	2	2	2	0.502	2	1	2_2.gif
17	1	4	2	6	0	1	n/a	4_2.gif
18	1	1	2	2	0.414	2	1	1_2.gif
19	1	3	2	4	0.278	4	1	3_2.gif
20	1	2	2	1	0.153	1	1	2_2.gif
21	1	4	2	3	0.065	3	1	4_2.gif
22	1	2	2	2	0.214	2	1	2_2.gif
23	1	4	2	4	0.125	4	1	4_2.gif
24	1	3	2	6	0	2	n/a	3_2.gif
25	1	2	2	4	0.647	4	1	2_2.gif
26	1	4	2	3	0.228	3	1	4_2.gif
27	1	3	2	2	0.165	2	1	3_2.gif
28	1	2	2	4	0.064	4	1	2_2.gif
29	1	1	2	3	0.155	3	1	1_2.gif
30	1	3	2	2	0.107	2	1	3_2.gif
31	1	1	2	1	0.173	1	1	1_2.gif
32	1	2	0	3	0.258	2	0	2_0.gif
33	1	4	0	2	0.093	4	0	4_0.gif
34	1	1	0	1	0.411	1	1	1_0.gif
35	1	3	0	3	0.442	3	1	3_0.gif
36	1	4	0	4	0.402	4	1	4_0.gif
37	1	3	0	3	0.453	3	1	3_0.gif
38	1	1	0	1	0.498	1	1	1_0.gif
39	1	2	0	2	0.395	2	1	2_0.gif
40	1	3	0	3	0.424	3	1	3_0.gif
41	1	1	0	1	0.417	1	1	1_0.gif
42	1	4	0	4	0.45	4	1	4_0.gif
43	1	3	0	3	0.459	3	1	3_0.gif
44	1	2	0	2	0.359	2	1	2_0.gif
45	1	4	0	4	0.335	4	1	4_0.gif
46	1	2	0	2	0.339	2	1	2_0.gif
47	1	1	0	1	0.357	1	1	1_0.gif
48	1	4	2	4	0.523	2	0	4_2.gif
49	1	2	2	6	0	1	n/a	2_2.gif
50	1	3	2	4	0.206	4	1	3_2.gif
51	1	4	2	2	0.101	2	1	4_2.gif
52	1	2	2	3	0.225	3	1	2_2.gif
53	1	3	2	4	0.239	4	1	3_2.gif
54	1	4	2	2	0.399	2	1	4_2.gif
55	1	1	2	6	0	3	n/a	1_2.gif
56	1	2	2	4	0.277	4	1	2_2.gif
57	1	3	2	1	0.178	1	1	3_2.gif
58	1	2	2	2	0.313	2	1	2_2.gif
59	1	1	2	3	0.47	3	1	1_2.gif
60	1	3	2	2	0.463	2	1	3_2.gif
61	1	1	2	1	0.448	1	1	1_2.gif
62	1	2	2	3	0.473	3	1	2_2.gif
63	1	4	2	2	0.665	1	0	4_2.gif
64.001	1	2	0	2	0.724	2	1	2_0.gif
65.001	1	1	0	1	0.64	1	1	1_0.gif
66.001	1	3	0	3	0.543	3	1	3_0.gif
67.001	1	1	0	1	0.512	1	1	1_0.gif
68.001	1	4	0	6	0	4	n/a	4_0.gif
69.001	1	2	0	2	0.355	2	1	2_0.gif
70.001	1	3	0	3	0.4	3	1	3_0.gif
71.001	1	1	0	1	0.411	1	1	1_0.gif
72.001	1	4	0	6	0	4	n/a	4_0.gif
73.001	1	2	0	2	0.341	2	1	2_0.gif
74.001	1	3	0	3	0.43	3	1	3_0.gif
75.001	1	1	0	1	0.385	1	1	1_0.gif
76.001	1	4	0	4	0.447	4	1	4_0.gif
77.001	1	1	0	1	0.432	1	1	1_0.gif
78.001	1	3	0	3	0.421	3	1	3_0.gif
79.001	1	2	0	2	0.334	2	1	2_0.gif
80.001	1	1	2	6	0	3	n/a	1_2.gif
81.001	1	3	2	6	0	2	n/a	3_2.gif
82.001	1	1	2	1	0.385	1	1	1_2.gif
83.001	1	2	2	3	0.258	3	1	2_2.gif
84.001	1	1	2	1	0.362	1	1	1_2.gif
85.001	1	3	2	2	0.259	2	1	3_2.gif
86.001	1	4	2	3	0.443	1	0	4_2.gif
87.001	1	1	2	6	0	3	n/a	1_2.gif
88.001	1	3	2	6	0	4	n/a	3_2.gif
89.001	1	1	2	6	0	1	n/a	1_2.gif
90.001	1	3	2	3	0.169	3	1	3_2.gif
91.001	1	4	2	1	0.003	1	1	4_2.gif
92.001	1	1	2	3	0.069	3	1	1_2.gif
93.001	1	4	2	1	0.064	4	0	4_2.gif
94.001	1	2	2	4	0.222	1	0	2_2.gif
95.001	1	3	2	1	0.172	4	0	3_2.gif
96.001	1	2	0	2	0.145	2	1	2_0.gif
97.001	1	1	0	1	0.395	1	1	1_0.gif
98.001	1	4	0	4	0.411	4	1	4_0.gif
99.001	1	1	0	1	0.471	1	1	1_0.gif
100.001	1	4	0	4	0.433	4	1	4_0.gif
101.001	1	1	0	1	0.458	1	1	1_0.gif
102.001	1	2	0	2	0.296	2	1	2_0.gif
103.001	1	3	0	3	0.41	3	1	3_0.gif
104.001	1	1	0	1	0.412	1	1	1_0.gif
105.001	1	2	0	2	0.383	2	1	2_0.gif
106.001	1	4	0	6	0	4	n/a	4_0.gif
107.001	1	2	0	2	0.37	2	1	2_0.gif
108.001	1	4	0	4	0.43	4	1	4_0.gif
109.001	1	2	0	2	0.348	2	1	2_0.gif
110.001	1	3	0	3	0.394	3	1	3_0.gif
111.001	1	1	0	1	0.355	1	1	1_0.gif
112.001	1	3	2	6	0	3	n/a	3_2.gif
113.001	1	4	2	6	0	1	n/a	4_2.gif
114.001	1	1	2	3	0.283	3	1	1_2.gif
115.001	1	4	2	4	0.099	4	1	4_2.gif
116.001	1	2	2	1	0.108	1	1	2_2.gif
117.001	1	4	2	4	0.103	4	1	4_2.gif
118.001	1	1	2	2	0.088	2	1	1_2.gif
119.001	1	2	2	4	0.084	4	1	2_2.gif
120.001	1	1	2	1	0.01	1	1	1_2.gif
121.001	1	2	2	2	0.004	2	1	2_2.gif
122.001	1	4	2	1	0.004	1	1	4_2.gif
123.001	1	1	2	2	0.004	2	1	1_2.gif
124.001	1	4	2	4	0.004	4	1	4_2.gif
125.001	1	2	2	4	0.605	1	0	2_2.gif
126.001	1	4	2	2	0.485	4	0	4_2.gif
127.001	1	3	2	3	0.468	2	0	3_2.gif
128.002	1	2	0	2	0.727	2	1	2_0.gif
129.002	1	1	0	1	0.539	1	1	1_0.gif
130.002	1	4	0	4	0.423	4	1	4_0.gif
131.002	1	3	0	3	0.405	3	1	3_0.gif
132.002	1	2	0	2	0.383	2	1	2_0.gif
133.002	1	1	0	1	0.413	1	1	1_0.gif
134.002	1	4	0	4	0.611	4	1	4_0.gif
135.002	1	3	0	3	0.439	3	1	3_0.gif
136.002	1	1	0	1	0.433	1	1	1_0.gif
137.002	1	4	0	4	0.389	4	1	4_0.gif
138.002	1	2	0	2	0.338	2	1	2_0.gif
139.002	1	3	0	3	0.322	3	1	3_0.gif
140.002	1	4	0	4	0.369	4	1	4_0.gif
141.002	1	1	0	1	0.322	1	1	1_0.gif
142.002	1	4	0	4	0.44	4	1	4_0.gif
143.002	1	2	0	2	0.299	2	1	2_0.gif
144.002	1	4	2	4	0.519	4	1	4_2.gif
145.002	1	2	2	6	0	2	n/a	2_2.gif
146.002	1	4	2	4	0.435	4	1	4_2.gif
147.002	1	1	2	2	0.252	2	1	1_2.gif
148.002	1	2	2	4	0.241	4	1	2_2.gif
149.002	1	1	2	1	0.111	1	1	1_2.gif
150.002	1	3	2	2	0.025	2	1	3_2.gif
151.002	1	2	2	1	0.003	1	1	2_2.gif
152.002	1	3	2	3	0.003	3	1	3_2.gif
153.002	1	2	2	2	0.003	2	1	2_2.gif
154.002	1	3	2	3	0.236	3	1	3_2.gif
155.002	1	1	2	1	0.579	2	0	1_2.gif
156.002	1	3	2	6	0	3	n/a	3_2.gif
157.002	1	1	2	1	0.357	1	1	1_2.gif
158.002	1	2	2	3	0.205	3	1	2_2.gif
159.002	1	1	2	2	0.484	1	0	1_2.gif
160.002	1	2	0	2	0.782	2	1	2_0.gif
161.002	1	1	0	1	0.475	1	1	1_0.gif
162.002	1	3	0	3	0.464	3	1	3_0.gif
163.002	1	1	0	1	0.469	1	1	1_0.gif
164.002	1	3	0	3	0.456	3	1	3_0.gif
165.002	1	4	0	4	0.294	4	1	4_0.gif
166.002	1	1	0	1	0.368	1	1	1_0.gif
167.002	1	2	0	2	0.281	2	1	2_0.gif
168.002	1	3	0	3	0.382	3	1	3_0.gif
169.002	1	1	0	1	0.399	1	1	1_0.gif
170.002	1	4	0	4	0.389	4	1	4_0.gif
171.002	1	2	0	2	0.346	2	1	2_0.gif
172.002	1	3	0	3	0.382	3	1	3_0.gif
173.002	1	2	0	2	0.393	2	1	2_0.gif
174.002	1	4	0	4	0.373	4	1	4_0.gif
175.002	1	2	0	2	0.336	2	1	2_0.gif
176.002	1	3	2	6	0	4	n/a	3_2.gif
177.002	1	2	2	6	0	2	n/a	2_2.gif
178.002	1	1	2	3	0.255	3	1	1_2.gif
179.002	1	2	2	2	0.14	2	1	2_2.gif
180.002	1	1	2	1	0.051	1	1	1_2.gif
181.002	1	3	2	2	0.208	2	1	3_2.gif
182.002	1	1	2	3	0.243	1	0	1_2.gif
183.002	1	4	2	6	0	3	n/a	4_2.gif
184.002	1	1	2	1	0.288	1	1	1_2.gif
185.002	1	2	2	6	0	4	n/a	2_2.gif
186.002	1	4	2	2	0.304	1	0	4_2.gif
187.002	1	3	2	3	0.286	2	0	3_2.gif
188.002	1	2	2	6	0	4	n/a	2_2.gif
189.002	1	1	2	3	0.392	3	1	1_2.gif
190.002	1	2	2	2	0.237	2	1	2_2.gif
191.002	1	3	2	1	0.273	1	1	3_2.gif
192.003	1	2	0	2	0.363	2	1	2_0.gif
193.003	1	1	0	1	0.374	1	1	1_0.gif
194.003	1	4	0	4	0.391	4	1	4_0.gif
195.003	1	2	0	2	0.328	2	1	2_0.gif
196.003	1	4	0	4	0.302	4	1	4_0.gif
197.003	1	1	0	1	0.41	1	1	1_0.gif
198.003	1	2	0	2	0.511	2	1	2_0.gif
199.003	1	4	0	4	0.453	4	1	4_0.gif
200.003	1	2	0	2	0.321	2	1	2_0.gif
201.003	1	1	0	1	0.31	1	1	1_0.gif
202.003	1	2	0	2	0.233	2	1	2_0.gif
203.003	1	4	0	4	0.285	4	1	4_0.gif
204.003	1	1	0	1	0.434	1	1	1_0.gif
205.003	1	3	0	3	0.507	3	1	3_0.gif
206.003	1	2	0	2	0.579	2	1	2_0.gif
207.003	1	4	0	4	0.519	4	1	4_0.gif
208.003	1	2	2	6	0	2	n/a	2_2.gif
209.003	1	4	2	6	0	4	n/a	4_2.gif
210.003	1	3	2	2	0.236	2	1	3_2.gif
211.003	1	2	2	4	0.22	4	1	2_2.gif
212.003	1	4	2	3	0.154	3	1	4_2.gif
213.003	1	3	2	2	0.116	2	1	3_2.gif
214.003	1	2	2	4	0.176	4	1	2_2.gif
215.003	1	1	2	3	0.118	3	1	1_2.gif
216.003	1	3	2	2	0.11	2	1	3_2.gif
217.003	1	1	2	1	0.118	1	1	1_2.gif
218.003	1	2	2	3	0.289	3	1	2_2.gif
219.003	1	4	2	1	0.23	1	1	4_2.gif
220.003	1	1	2	2	0.272	2	1	1_2.gif
221.003	1	3	2	4	0.271	4	1	3_2.gif
222.003	1	4	2	2	0.35	1	0	4_2.gif
223.003	1	3	2	6	0	3	n/a	3_2.gif
224.003	1	1	0	4	0.304	1	0	1_0.gif
225.003	1	2	0	1	0.035	2	0	2_0.gif
226.003	1	3	0	3	0.361	3	1	3_0.gif
227.003	1	1	0	1	0.425	1	1	1_0.gif
228.003	1	4	0	4	0.339	4	1	4_0.gif
229.003	1	3	0	3	0.371	3	1	3_0.gif
230.003	1	2	0	2	0.299	2	1	2_0.gif
231.003	1	4	0	4	0.533	4	1	4_0.gif
232.003	1	2	0	2	0.389	2	1	2_0.gif
233.003	1	1	0	1	0.445	1	1	1_0.gif
234.003	1	4	0	4	0.447	4	1	4_0.gif
235.003	1	2	0	2	0.317	2	1	2_0.gif
236.003	1	3	0	3	0.401	3	1	3_0.gif
237.003	1	4	0	4	0.353	4	1	4_0.gif
238.003	1	2	0	2	0.388	2	1	2_0.gif
239.003	1	3	0	3	0.455	3	1	3_0.gif
240.003	1	4	2	6	0	2	n/a	4_2.gif
241.003	1	1	2	4	0.703	3	0	1_2.gif
242.003	1	2	2	4	0.004	4	1	2_2.gif
243.003	1	3	2	1	0.077	1	1	3_2.gif
244.003	1	2	2	6	0	2	n/a	2_2.gif
245.003	1	1	2	3	0.279	3	1	1_2.gif
246.003	1	3	2	2	0.199	2	1	3_2.gif
247.003	1	1	2	1	0.232	1	1	1_2.gif
248.003	1	2	2	3	0.199	3	1	2_2.gif
249.003	1	4	2	1	0.233	1	1	4_2.gif
250.003	1	2	2	2	0.234	2	1	2_2.gif
251.003	1	1	2	4	0.371	4	1	1_2.gif
252.003	1	3	2	2	0.804	2	1	3_2.gif
253.003	1	1	2	2	0.004	1	0	1_2.gif
254.003	1	4	2	6	0	3	n/a	4_2.gif
255.003	1	2	2	3	0.106	1	0	2_2.gif
