onset	duration	nback_display	trial_type	response	response_time	correct_response	correct	stim_file
0	1	1	0	1	0.583	1	1	1_0.gif
1	1	4	0	4	0.797	4	1	4_0.gif
2	1	3	0	4	0.008	3	0	3_0.gif
3	1	1	0	1	0.69	1	1	1_0.gif
4	1	4	0	4	0.681	4	1	4_0.gif
5	1	1	0	1	0.594	1	1	1_0.gif
6	1	3	0	3	0.508	3	1	3_0.gif
7	1	4	0	4	0.647	4	1	4_0.gif
8	1	3	0	4	0.008	3	0	3_0.gif
9	1	2	0	2	0.563	2	1	2_0.gif
10	1	4	0	4	0.612	4	1	4_0.gif
11	1	2	0	2	0.598	2	1	2_0.gif
12	1	3	0	6	0	3	n/a	3_0.gif
13	1	4	0	3	0.008	4	0	4_0.gif
14	1	2	0	2	0.567	2	1	2_0.gif
15	1	4	0	4	0.599	4	1	4_0.gif
16	1	3	2	6	0	2	n/a	3_2.gif
17	1	4	2	6	0	4	n/a	4_2.gif
18	1	2	2	2	0.567	3	0	2_2.gif
19	1	3	2	4	0.422	4	1	3_2.gif
20	1	1	2	2	0.579	2	1	1_2.gif
21	1	4	2	1	0.476	3	0	4_2.gif
22	1	2	2	4	0.464	1	0	2_2.gif
23	1	3	2	6	0	4	n/a	3_2.gif
24	1	1	2	6	0	2	n/a	1_2.gif
25	1	2	2	6	0	3	n/a	2_2.gif
26	1	1	2	1	0.518	1	1	1_2.gif
27	1	4	2	2	0.41	2	1	4_2.gif
28	1	3	2	6	0	1	n/a	3_2.gif
29	1	2	2	4	0.424	4	1	2_2.gif
30	1	3	2	3	0.361	3	1	3_2.gif
31	1	4	2	6	0	2	n/a	4_2.gif
32.001	1	2	0	2	0.714	2	1	2_0.gif
33.001	1	3	0	3	0.508	3	1	3_0.gif
34.001	1	4	0	4	0.416	4	1	4_0.gif
35.001	1	1	0	1	0.473	1	1	1_0.gif
36.001	1	4	0	4	0.474	4	1	4_0.gif
37.001	1	1	0	1	0.448	1	1	1_0.gif
38.001	1	4	0	4	0.469	4	1	4_0.gif
39.001	1	3	0	3	0.444	3	1	3_0.gif
40.001	1	4	0	4	0.518	4	1	4_0.gif
41.001	1	3	0	3	0.498	3	1	3_0.gif
42.001	1	1	0	1	0.528	1	1	1_0.gif
43.001	1	3	0	3	0.513	3	1	3_0.gif
44.001	1	1	0	1	0.551	1	1	1_0.gif
45.001	1	3	0	3	0.388	3	1	3_0.gif
46.001	1	4	0	4	0.398	4	1	4_0.gif
47.001	1	3	0	3	0.389	3	1	3_0.gif
48.001	1	2	2	2	0.105	4	0	2_2.gif
49.001	1	4	2	4	0.485	3	0	4_2.gif
50.001	1	1	2	1	0.355	2	0	1_2.gif
51.001	1	2	2	6	0	4	n/a	2_2.gif
52.001	1	4	2	1	0.436	1	1	4_2.gif
53.001	1	1	2	2	0.369	2	1	1_2.gif
54.001	1	2	2	4	0.541	4	1	2_2.gif
55.001	1	3	2	1	0.255	1	1	3_2.gif
56.001	1	4	2	3	0.423	2	0	4_2.gif
57.001	1	1	2	6	0	3	n/a	1_2.gif
58.001	1	4	2	6	0	4	n/a	4_2.gif
59.001	1	3	2	1	0.324	1	1	3_2.gif
60.001	1	1	2	4	0.253	4	1	1_2.gif
61.001	1	3	2	6	0	3	n/a	3_2.gif
62.001	1	4	2	6	0	1	n/a	4_2.gif
63.001	1	2	2	6	0	3	n/a	2_2.gif
64.002	1	4	0	4	0.705	4	1	4_0.gif
65.002	1	1	0	1	0.662	1	1	1_0.gif
66.002	1	4	0	4	0.564	4	1	4_0.gif
67.002	1	2	0	2	0.68	2	1	2_0.gif
68.002	1	4	0	4	0.532	4	1	4_0.gif
69.002	1	1	0	1	0.475	1	1	1_0.gif
70.002	1	3	0	3	0.487	3	1	3_0.gif
71.002	1	1	0	1	0.704	1	1	1_0.gif
72.002	1	3	0	2	0.679	3	0	3_0.gif
73.002	1	1	0	1	0.667	1	1	1_0.gif
74.002	1	2	0	6	0	2	n/a	2_0.gif
75.002	1	3	0	4	0.031	3	0	3_0.gif
76.002	1	2	0	6	0	2	n/a	2_0.gif
77.002	1	3	0	3	0.529	3	1	3_0.gif
78.002	1	1	0	1	0.555	1	1	1_0.gif
79.002	1	2	0	2	0.718	2	1	2_0.gif
80.002	1	1	2	6	0	1	n/a	1_2.gif
81.031	1	3	2	6	0	2	n/a	3_2.gif
82.062	1	4	2	1	0.406	1	1	4_2.gif
83.093	1	3	2	2	0.031	3	0	3_2.gif
84.124	1	2	2	4	0.032	4	1	2_2.gif
85.156	1	3	2	2	0.921	3	0	3_2.gif
86.156	1	2	2	2	0.047	2	1	2_2.gif
87.187	1	3	2	6	0	3	n/a	3_2.gif
88.203	1	4	2	2	0.187	2	1	4_2.gif
89.203	1	1	2	3	0.031	3	1	1_2.gif
90.203	1	2	2	1	0.151	4	0	2_2.gif
91.203	1	1	2	2	0.269	1	0	1_2.gif
92.203	1	2	2	6	0	2	n/a	2_2.gif
93.203	1	4	2	6	0	1	n/a	4_2.gif
94.203	1	2	2	6	0	2	n/a	2_2.gif
95.203	1	4	2	4	0.11	4	1	4_2.gif
96.203	1	1	0	2	0.008	1	0	1_0.gif
97.203	1	4	0	1	0.008	4	0	4_0.gif
98.203	1	3	0	2	0.628	3	0	3_0.gif
99.203	1	2	0	3	0.897	2	0	2_0.gif
100.203	1	4	0	3	0.008	4	0	4_0.gif
101.203	1	2	0	2	0.644	2	1	2_0.gif
102.203	1	4	0	6	0	4	n/a	4_0.gif
103.203	1	2	0	4	0.141	2	0	2_0.gif
104.203	1	3	0	3	0.009	3	1	3_0.gif
105.203	1	1	0	3	0.008	1	0	1_0.gif
106.203	1	2	0	2	0.656	2	1	2_0.gif
107.203	1	3	0	2	0.01	3	0	3_0.gif
108.203	1	2	0	2	0.705	2	1	2_0.gif
109.203	1	4	0	2	0.008	4	0	4_0.gif
110.203	1	2	0	2	0.791	2	1	2_0.gif
111.203	1	4	0	2	0.008	4	0	4_0.gif
112.204	1	2	2	4	0.008	2	0	2_2.gif
113.204	1	3	2	2	0.008	4	0	3_2.gif
114.204	1	1	2	2	0.173	2	1	1_2.gif
115.204	1	4	2	3	0.008	3	1	4_2.gif
116.204	1	1	2	4	0.467	1	0	1_2.gif
117.204	1	2	2	6	0	4	n/a	2_2.gif
118.204	1	3	2	2	0.241	1	0	3_2.gif
119.204	1	4	2	4	0.011	2	0	4_2.gif
120.204	1	2	2	6	0	3	n/a	2_2.gif
121.204	1	4	2	6	0	4	n/a	4_2.gif
122.204	1	3	2	2	0.482	2	1	3_2.gif
123.204	1	2	2	4	0.165	4	1	2_2.gif
124.204	1	1	2	1	0.527	3	0	1_2.gif
125.204	1	4	2	6	0	2	n/a	4_2.gif
126.204	1	3	2	1	0.565	1	1	3_2.gif
127.204	1	2	2	4	0.251	4	1	2_2.gif
128.204	1	3	0	3	0.554	3	1	3_0.gif
129.204	1	2	0	2	0.618	2	1	2_0.gif
130.204	1	1	0	1	0.609	1	1	1_0.gif
131.204	1	4	0	4	0.436	4	1	4_0.gif
132.204	1	2	0	2	0.987	2	1	2_0.gif
133.204	1	3	0	2	0.008	3	0	3_0.gif
134.204	1	2	0	2	0.86	2	1	2_0.gif
135.204	1	3	0	2	0.008	3	0	3_0.gif
136.204	1	2	0	2	0.513	2	1	2_0.gif
137.204	1	4	0	4	0.594	4	1	4_0.gif
138.204	1	2	0	2	0.589	2	1	2_0.gif
139.204	1	1	0	1	0.481	1	1	1_0.gif
140.204	1	4	0	4	0.42	4	1	4_0.gif
141.204	1	3	0	3	0.636	3	1	3_0.gif
142.204	1	2	0	2	0.405	2	1	2_0.gif
143.204	1	4	0	4	0.532	4	1	4_0.gif
144.205	1	3	2	6	0	2	n/a	3_2.gif
145.205	1	2	2	3	0.92	4	0	2_2.gif
146.205	1	3	2	3	0.008	3	1	3_2.gif
147.205	1	4	2	6	0	2	n/a	4_2.gif
148.205	1	3	2	6	0	3	n/a	3_2.gif
149.205	1	2	2	4	0.513	4	1	2_2.gif
150.205	1	4	2	3	0.259	3	1	4_2.gif
151.205	1	1	2	4	0.164	2	0	1_2.gif
152.205	1	2	2	4	0.918	4	1	2_2.gif
153.205	1	4	2	4	0.008	1	0	4_2.gif
154.205	1	1	2	1	0.673	2	0	1_2.gif
155.205	1	4	2	2	0.801	4	0	4_2.gif
156.205	1	1	2	6	0	1	n/a	1_2.gif
157.205	1	3	2	6	0	4	n/a	3_2.gif
158.205	1	4	2	1	0.233	1	1	4_2.gif
159.205	1	3	2	3	0.008	3	1	3_2.gif
160.205	1	4	0	4	0.74	4	1	4_0.gif
161.205	1	1	0	4	0.008	1	0	1_0.gif
162.205	1	3	0	3	0.577	3	1	3_0.gif
163.219	1	1	0	1	0.511	1	1	1_0.gif
164.219	1	2	0	2	0.534	2	1	2_0.gif
165.219	1	3	0	3	0.473	3	1	3_0.gif
166.219	1	1	0	1	0.631	1	1	1_0.gif
167.219	1	2	0	2	0.409	2	1	2_0.gif
168.219	1	3	0	3	0.38	3	1	3_0.gif
169.22	1	2	0	2	0.473	2	1	2_0.gif
170.22	1	4	0	4	0.623	4	1	4_0.gif
171.22	1	1	0	1	0.647	1	1	1_0.gif
172.22	1	4	0	4	0.575	4	1	4_0.gif
173.22	1	3	0	3	0.464	3	1	3_0.gif
174.22	1	1	0	1	0.623	1	1	1_0.gif
175.22	1	4	0	4	0.598	4	1	4_0.gif
176.22	1	2	2	6	0	1	n/a	2_2.gif
177.22	1	4	2	6	0	4	n/a	4_2.gif
178.235	1	3	2	2	0.031	2	1	3_2.gif
179.235	1	2	2	4	0.229	4	1	2_2.gif
180.235	1	3	2	3	0.35	3	1	3_2.gif
181.235	1	1	2	2	0.839	2	1	1_2.gif
182.236	1	3	2	2	0.008	3	0	3_2.gif
183.236	1	2	2	1	0.008	1	1	2_2.gif
184.236	1	3	2	3	0.008	3	1	3_2.gif
185.236	1	4	2	2	0.008	2	1	4_2.gif
186.236	1	1	2	4	0.648	3	0	1_2.gif
187.236	1	3	2	1	0.505	4	0	3_2.gif
188.236	1	2	2	3	0.448	1	0	2_2.gif
189.236	1	1	2	2	0.306	3	0	1_2.gif
190.236	1	4	2	1	0.261	2	0	4_2.gif
191.236	1	3	2	4	0.086	1	0	3_2.gif
192.236	1	1	0	3	0.042	1	0	1_0.gif
193.236	1	4	0	1	0.009	4	0	4_0.gif
194.236	1	1	0	1	0.608	1	1	1_0.gif
195.236	1	3	0	4	0.543	3	0	3_0.gif
196.236	1	4	0	6	0	4	n/a	4_0.gif
197.237	1	3	0	6	0	3	n/a	3_0.gif
198.237	1	2	0	6	0	2	n/a	2_0.gif
199.237	1	4	0	4	0.787	4	1	4_0.gif
200.237	1	2	0	2	0.619	2	1	2_0.gif
201.237	1	3	0	3	0.565	3	1	3_0.gif
202.237	1	4	0	4	0.565	4	1	4_0.gif
203.237	1	2	0	2	0.499	2	1	2_0.gif
204.237	1	4	0	4	0.516	4	1	4_0.gif
205.237	1	3	0	3	0.571	3	1	3_0.gif
206.237	1	4	0	4	0.727	4	1	4_0.gif
207.237	1	2	0	4	0.007	2	0	2_0.gif
208.237	1	3	2	6	0	4	n/a	3_2.gif
209.237	1	1	2	6	0	2	n/a	1_2.gif
210.237	1	4	2	3	0.359	3	1	4_2.gif
211.237	1	2	2	1	0.008	1	1	2_2.gif
212.237	1	3	2	2	0.488	4	0	3_2.gif
213.237	1	1	2	3	0.379	2	0	1_2.gif
214.237	1	2	2	1	0.263	3	0	2_2.gif
215.237	1	1	2	2	0.225	1	0	1_2.gif
216.237	1	4	2	6	0	2	n/a	4_2.gif
217.237	1	3	2	4	0.025	1	0	3_2.gif
218.237	1	2	2	6	0	4	n/a	2_2.gif
219.237	1	3	2	2	0.203	3	0	3_2.gif
220.237	1	4	2	3	0.26	2	0	4_2.gif
221.237	1	2	2	6	0	3	n/a	2_2.gif
222.237	1	3	2	6	0	4	n/a	3_2.gif
223.237	1	4	2	2	0.273	2	1	4_2.gif
224.238	1	1	0	3	0.263	1	0	1_0.gif
225.238	1	4	0	1	0.061	4	0	4_0.gif
226.238	1	1	0	1	0.615	1	1	1_0.gif
227.238	1	4	0	4	0.378	4	1	4_0.gif
228.238	1	3	0	3	0.532	3	1	3_0.gif
229.238	1	4	0	4	0.621	4	1	4_0.gif
230.238	1	3	0	3	0.494	3	1	3_0.gif
231.238	1	1	0	1	0.599	1	1	1_0.gif
232.238	1	3	0	3	0.51	3	1	3_0.gif
233.238	1	1	0	1	0.483	1	1	1_0.gif
234.238	1	3	0	3	0.354	3	1	3_0.gif
235.238	1	4	0	4	0.406	4	1	4_0.gif
236.238	1	3	0	3	0.48	3	1	3_0.gif
237.238	1	2	0	2	0.6	2	1	2_0.gif
238.238	1	4	0	4	0.571	4	1	4_0.gif
239.238	1	1	0	1	0.599	1	1	1_0.gif
240.238	1	2	2	6	0	4	n/a	2_2.gif
241.238	1	4	2	6	0	1	n/a	4_2.gif
242.238	1	1	2	2	0.186	2	1	1_2.gif
243.238	1	2	2	4	0.049	4	1	2_2.gif
244.238	1	3	2	1	0.253	1	1	3_2.gif
245.238	1	4	2	2	0.239	2	1	4_2.gif
246.238	1	1	2	3	0.314	3	1	1_2.gif
247.238	1	4	2	4	0.232	4	1	4_2.gif
248.238	1	3	2	1	0.299	1	1	3_2.gif
249.238	1	1	2	4	0.257	4	1	1_2.gif
250.238	1	3	2	3	0.246	3	1	3_2.gif
251.238	1	4	2	1	0.215	1	1	4_2.gif
252.238	1	2	2	4	0.263	3	0	2_2.gif
253.238	1	4	2	2	0.312	4	0	4_2.gif
254.238	1	1	2	4	0.41	2	0	1_2.gif
255.238	1	4	2	1	0.411	4	0	4_2.gif
