onset	duration	nback_display	trial_type	response	response_time	correct_response	correct	stim_file
0	1	2	0	2	0.607	2	1	2_0.gif
1	1	1	0	1	0.399	1	1	1_0.gif
2	1	4	0	4	0.647	4	1	4_0.gif
3	1	2	0	2	0.506	2	1	2_0.gif
4	1	1	0	1	0.379	1	1	1_0.gif
5	1	4	0	4	0.381	4	1	4_0.gif
6	1	2	0	2	0.322	2	1	2_0.gif
7	1	1	0	1	0.298	1	1	1_0.gif
8	1	4	0	4	0.485	4	1	4_0.gif
9	1	3	0	3	0.342	3	1	3_0.gif
10	1	4	0	4	0.657	4	1	4_0.gif
11	1	1	0	1	0.487	1	1	1_0.gif
12	1	3	0	3	0.318	3	1	3_0.gif
13	1	1	0	1	0.383	1	1	1_0.gif
14	1	4	0	4	0.339	4	1	4_0.gif
15	1	2	0	2	0.336	2	1	2_0.gif
16.001	1	1	2	1	0.553	4	0	1_2.gif
17.001	1	3	2	6	0	2	n/a	3_2.gif
18.001	1	2	2	1	0.346	1	1	2_2.gif
19.001	1	1	2	3	0.29	3	1	1_2.gif
20.001	1	3	2	6	0	2	n/a	3_2.gif
21.001	1	4	2	6	0	1	n/a	4_2.gif
22.001	1	1	2	3	0.458	3	1	1_2.gif
23.001	1	4	2	1	0.418	4	0	4_2.gif
24.001	1	2	2	1	0.476	1	1	2_2.gif
25.001	1	4	2	4	0.458	4	1	4_2.gif
26.001	1	2	2	2	0.445	2	1	2_2.gif
27.001	1	4	2	4	0.363	4	1	4_2.gif
28.001	1	1	2	2	0.896	2	1	1_2.gif
29.001	1	3	2	2	0.008	4	0	3_2.gif
30.001	1	4	2	6	0	1	n/a	4_2.gif
31.001	1	1	2	3	0.414	3	1	1_2.gif
32.001	1	2	0	2	0.665	2	1	2_0.gif
33.001	1	4	0	4	0.554	4	1	4_0.gif
34.001	1	2	0	2	0.348	2	1	2_0.gif
35.001	1	1	0	1	0.301	1	1	1_0.gif
36.001	1	2	0	2	0.339	2	1	2_0.gif
37.001	1	3	0	3	0.286	3	1	3_0.gif
38.001	1	4	0	6	0	4	n/a	4_0.gif
39.001	1	1	0	1	0.431	1	1	1_0.gif
40.001	1	2	0	2	0.26	2	1	2_0.gif
41.001	1	1	0	1	0.499	1	1	1_0.gif
42.001	1	3	0	3	0.396	3	1	3_0.gif
43.001	1	1	0	1	0.482	1	1	1_0.gif
44.001	1	4	0	4	0.52	4	1	4_0.gif
45.001	1	3	0	3	0.365	3	1	3_0.gif
46.001	1	1	0	1	0.424	1	1	1_0.gif
47.001	1	2	0	2	0.344	2	1	2_0.gif
48.002	1	3	2	6	0	1	n/a	3_2.gif
49.002	1	1	2	6	0	2	n/a	1_2.gif
50.002	1	2	2	3	0.343	3	1	2_2.gif
51.002	1	3	2	1	0.298	1	1	3_2.gif
52.002	1	4	2	2	0.216	2	1	4_2.gif
53.002	1	1	2	3	0.234	3	1	1_2.gif
54.002	1	2	2	1	0.357	4	0	2_2.gif
55.002	1	1	2	6	0	1	n/a	1_2.gif
56.002	1	4	2	6	0	2	n/a	4_2.gif
57.002	1	2	2	1	0.57	1	1	2_2.gif
58.002	1	4	2	4	0.593	4	1	4_2.gif
59.002	1	2	2	2	0.384	2	1	2_2.gif
60.002	1	1	2	6	0	4	n/a	1_2.gif
61.002	1	2	2	6	0	2	n/a	2_2.gif
62.002	1	1	2	2	0.547	1	0	1_2.gif
63.002	1	2	2	1	0.406	2	0	2_2.gif
64.002	1	1	0	1	0.608	1	1	1_0.gif
65.002	1	2	0	2	0.361	2	1	2_0.gif
66.002	1	1	0	1	0.32	1	1	1_0.gif
67.002	1	3	0	3	0.329	3	1	3_0.gif
68.002	1	1	0	1	0.454	1	1	1_0.gif
69.002	1	2	0	2	0.273	2	1	2_0.gif
70.002	1	4	0	4	0.467	4	1	4_0.gif
71.002	1	3	0	3	0.309	3	1	3_0.gif
72.002	1	4	0	4	0.525	4	1	4_0.gif
73.002	1	1	0	1	0.395	1	1	1_0.gif
74.002	1	3	0	3	0.332	3	1	3_0.gif
75.002	1	4	0	4	0.508	4	1	4_0.gif
76.002	1	3	0	3	0.359	3	1	3_0.gif
77.002	1	4	0	4	0.444	4	1	4_0.gif
78.002	1	2	0	2	0.312	2	1	2_0.gif
79.002	1	1	0	1	0.29	1	1	1_0.gif
80.003	1	4	2	6	0	2	n/a	4_2.gif
81.003	1	3	2	6	0	1	n/a	3_2.gif
82.003	1	4	2	4	0.486	4	1	4_2.gif
83.003	1	2	2	3	0.378	3	1	2_2.gif
84.003	1	4	2	4	0.359	4	1	4_2.gif
85.003	1	3	2	2	0.376	2	1	3_2.gif
86.003	1	1	2	4	0.418	4	1	1_2.gif
87.003	1	3	2	3	0.266	3	1	3_2.gif
88.003	1	4	2	1	0.335	1	1	4_2.gif
89.003	1	1	2	3	0.305	3	1	1_2.gif
90.003	1	2	2	6	0	4	n/a	2_2.gif
91.003	1	4	2	6	0	1	n/a	4_2.gif
92.003	1	2	2	2	0.424	2	1	2_2.gif
93.003	1	4	2	4	0.331	4	1	4_2.gif
94.003	1	3	2	2	0.527	2	1	3_2.gif
95.003	1	2	2	4	0.416	4	1	2_2.gif
96.003	1	3	0	3	0.475	3	1	3_0.gif
97.003	1	4	0	4	0.449	4	1	4_0.gif
98.003	1	3	0	3	0.359	3	1	3_0.gif
99.003	1	2	0	2	0.299	2	1	2_0.gif
100.003	1	3	0	3	0.325	3	1	3_0.gif
101.003	1	4	0	4	0.47	4	1	4_0.gif
102.003	1	1	0	1	0.419	1	1	1_0.gif
103.003	1	4	0	4	0.346	4	1	4_0.gif
104.003	1	2	0	2	0.303	2	1	2_0.gif
105.003	1	1	0	1	0.361	1	1	1_0.gif
106.003	1	3	0	3	0.364	3	1	3_0.gif
107.003	1	1	0	1	0.416	1	1	1_0.gif
108.003	1	3	0	3	0.332	3	1	3_0.gif
109.003	1	1	0	1	0.274	1	1	1_0.gif
110.003	1	2	0	2	0.321	2	1	2_0.gif
111.003	1	4	0	4	0.351	4	1	4_0.gif
112.004	1	2	2	6	0	2	n/a	2_2.gif
113.004	1	3	2	6	0	4	n/a	3_2.gif
114.004	1	1	2	4	0.311	2	0	1_2.gif
115.004	1	3	2	3	0.244	3	1	3_2.gif
116.004	1	1	2	6	0	1	n/a	1_2.gif
117.004	1	3	2	6	0	3	n/a	3_2.gif
118.004	1	4	2	1	0.216	1	1	4_2.gif
119.004	1	1	2	3	0.266	3	1	1_2.gif
120.004	1	4	2	4	0.271	4	1	4_2.gif
121.004	1	1	2	1	0.273	1	1	1_2.gif
122.004	1	3	2	4	0.38	4	1	3_2.gif
123.004	1	4	2	1	0.625	1	1	4_2.gif
124.004	1	1	2	3	0.492	3	1	1_2.gif
125.004	1	3	2	4	0.806	4	1	3_2.gif
126.004	1	1	2	4	0.009	1	0	1_2.gif
127.004	1	4	2	6	0	3	n/a	4_2.gif
128.005	1	1	0	1	0.437	1	1	1_0.gif
129.005	1	4	0	4	0.543	4	1	4_0.gif
130.005	1	3	0	3	0.371	3	1	3_0.gif
131.005	1	2	0	2	0.464	2	1	2_0.gif
132.005	1	3	0	3	0.332	3	1	3_0.gif
133.005	1	1	0	1	0.304	1	1	1_0.gif
134.005	1	3	0	3	0.405	3	1	3_0.gif
135.005	1	4	0	4	0.395	4	1	4_0.gif
136.005	1	3	0	3	0.357	3	1	3_0.gif
137.005	1	4	0	4	0.499	4	1	4_0.gif
138.005	1	3	0	3	0.308	3	1	3_0.gif
139.005	1	1	0	1	0.361	1	1	1_0.gif
140.005	1	3	0	3	0.288	3	1	3_0.gif
141.005	1	1	0	1	0.419	1	1	1_0.gif
142.005	1	4	0	4	0.738	4	1	4_0.gif
143.005	1	3	0	3	0.427	3	1	3_0.gif
144.005	1	1	2	6	0	4	n/a	1_2.gif
145.005	1	4	2	6	0	3	n/a	4_2.gif
146.005	1	3	2	1	0.292	1	1	3_2.gif
147.005	1	4	2	4	0.216	4	1	4_2.gif
148.005	1	1	2	3	0.204	3	1	1_2.gif
149.005	1	4	2	4	0.359	4	1	4_2.gif
150.005	1	1	2	6	0	1	n/a	1_2.gif
151.005	1	3	2	6	0	4	n/a	3_2.gif
152.005	1	1	2	1	0.47	1	1	1_2.gif
153.005	1	3	2	3	0.498	3	1	3_2.gif
154.005	1	1	2	1	0.387	1	1	1_2.gif
155.005	1	2	2	3	0.409	3	1	2_2.gif
156.005	1	1	2	1	0.5	1	1	1_2.gif
157.005	1	2	2	6	0	2	n/a	2_2.gif
158.005	1	4	2	6	0	1	n/a	4_2.gif
159.005	1	1	2	4	0.416	2	0	1_2.gif
160.006	1	4	0	4	0.517	4	1	4_0.gif
161.006	1	2	0	2	0.359	2	1	2_0.gif
162.006	1	4	0	4	0.471	4	1	4_0.gif
163.006	1	1	0	1	0.362	1	1	1_0.gif
164.006	1	3	0	3	0.338	3	1	3_0.gif
165.006	1	2	0	2	0.282	2	1	2_0.gif
166.006	1	3	0	3	0.356	3	1	3_0.gif
167.006	1	4	0	4	0.547	4	1	4_0.gif
168.006	1	1	0	1	0.328	1	1	1_0.gif
169.006	1	2	0	2	0.356	2	1	2_0.gif
170.006	1	3	0	3	0.322	3	1	3_0.gif
171.006	1	4	0	4	0.404	4	1	4_0.gif
172.006	1	3	0	3	0.425	3	1	3_0.gif
173.006	1	1	0	1	0.342	1	1	1_0.gif
174.006	1	2	0	2	0.304	2	1	2_0.gif
175.006	1	1	0	1	0.445	1	1	1_0.gif
176.007	1	3	2	6	0	2	n/a	3_2.gif
177.007	1	4	2	6	0	1	n/a	4_2.gif
178.007	1	1	2	3	0.496	3	1	1_2.gif
179.007	1	4	2	1	0.45	4	0	4_2.gif
180.007	1	1	2	4	0.399	1	0	1_2.gif
181.007	1	4	2	1	0.283	4	0	4_2.gif
182.007	1	3	2	4	0.754	1	0	3_2.gif
183.007	1	4	2	6	0	4	n/a	4_2.gif
184.007	1	2	2	3	0.645	3	1	2_2.gif
185.007	1	4	2	4	0.45	4	1	4_2.gif
186.007	1	3	2	1	0.415	2	0	3_2.gif
187.007	1	4	2	4	0.612	4	1	4_2.gif
188.007	1	1	2	6	0	3	n/a	1_2.gif
189.007	1	2	2	4	0.499	4	1	2_2.gif
190.007	1	3	2	1	0.401	1	1	3_2.gif
191.007	1	4	2	2	0.309	2	1	4_2.gif
192.008	1	1	0	3	0.473	1	0	1_0.gif
193.008	1	4	0	4	0.582	4	1	4_0.gif
194.008	1	2	0	2	0.336	2	1	2_0.gif
195.008	1	1	0	1	0.411	1	1	1_0.gif
196.008	1	4	0	4	0.445	4	1	4_0.gif
197.008	1	2	0	2	0.34	2	1	2_0.gif
198.008	1	1	0	1	0.351	1	1	1_0.gif
199.008	1	4	0	4	0.394	4	1	4_0.gif
200.008	1	3	0	3	0.342	3	1	3_0.gif
201.008	1	4	0	4	0.901	4	1	4_0.gif
202.008	1	1	0	1	0.468	1	1	1_0.gif
203.008	1	3	0	3	0.354	3	1	3_0.gif
204.008	1	1	0	1	0.449	1	1	1_0.gif
205.008	1	4	0	6	0	4	n/a	4_0.gif
206.008	1	2	0	2	0.422	2	1	2_0.gif
207.008	1	1	0	1	0.354	1	1	1_0.gif
208.008	1	3	2	6	0	2	n/a	3_2.gif
209.008	1	2	2	6	0	1	n/a	2_2.gif
210.008	1	1	2	3	0.412	3	1	1_2.gif
211.008	1	3	2	2	0.346	2	1	3_2.gif
212.008	1	4	2	1	0.288	1	1	4_2.gif
213.008	1	1	2	6	0	3	n/a	1_2.gif
214.008	1	4	2	6	0	4	n/a	4_2.gif
215.008	1	2	2	1	0.695	1	1	2_2.gif
216.008	1	4	2	4	0.528	4	1	4_2.gif
217.008	1	2	2	2	0.474	2	1	2_2.gif
218.008	1	4	2	6	0	4	n/a	4_2.gif
219.008	1	1	2	4	0.533	2	0	1_2.gif
220.008	1	3	2	6	0	4	n/a	3_2.gif
221.008	1	4	2	3	0.663	1	0	4_2.gif
222.008	1	1	2	6	0	3	n/a	1_2.gif
223.008	1	2	2	6	0	4	n/a	2_2.gif
224.009	1	4	0	4	0.639	4	1	4_0.gif
225.009	1	2	0	2	0.419	2	1	2_0.gif
226.009	1	1	0	1	0.362	1	1	1_0.gif
227.009	1	2	0	2	0.406	2	1	2_0.gif
228.009	1	3	0	3	0.337	3	1	3_0.gif
229.009	1	4	0	4	0.652	4	1	4_0.gif
230.009	1	1	0	1	0.415	1	1	1_0.gif
231.009	1	2	0	2	0.259	2	1	2_0.gif
232.009	1	1	0	1	0.377	1	1	1_0.gif
233.009	1	3	0	3	0.31	3	1	3_0.gif
234.009	1	1	0	1	0.332	1	1	1_0.gif
235.009	1	4	0	4	0.329	4	1	4_0.gif
236.009	1	3	0	3	0.401	3	1	3_0.gif
237.009	1	1	0	1	0.241	1	1	1_0.gif
238.009	1	2	0	2	0.244	2	1	2_0.gif
239.009	1	3	0	3	0.372	3	1	3_0.gif
240.009	1	1	2	6	0	2	n/a	1_2.gif
241.009	1	2	2	6	0	3	n/a	2_2.gif
242.009	1	3	2	1	0.485	1	1	3_2.gif
243.009	1	4	2	2	0.409	2	1	4_2.gif
244.009	1	1	2	3	0.406	3	1	1_2.gif
245.009	1	2	2	4	0.359	4	1	2_2.gif
246.009	1	1	2	1	0.334	1	1	1_2.gif
247.009	1	4	2	2	0.413	2	1	4_2.gif
248.009	1	2	2	6	0	1	n/a	2_2.gif
249.009	1	4	2	6	0	4	n/a	4_2.gif
250.009	1	2	2	2	0.444	2	1	2_2.gif
251.009	1	1	2	4	0.458	4	1	1_2.gif
252.009	1	2	2	1	0.42	2	0	2_2.gif
253.009	1	1	2	6	0	1	n/a	1_2.gif
254.009	1	2	2	6	0	2	n/a	2_2.gif
255.009	1	1	2	6	0	1	n/a	1_2.gif
