onset	duration	nback_display	trial_type	response	response_time	correct_response	correct	stim_file
0	1	1	0	1	0.559	1	1	1_0.gif
1	1	4	0	4	0.644	4	1	4_0.gif
2	1	1	0	1	0.36	1	1	1_0.gif
3	1	4	0	4	0.46	4	1	4_0.gif
4	1	1	0	1	0.331	1	1	1_0.gif
5	1	2	0	2	0.328	2	1	2_0.gif
6	1	4	0	4	0.455	4	1	4_0.gif
7	1	1	0	1	0.331	1	1	1_0.gif
8	1	2	0	2	0.346	2	1	2_0.gif
9	1	4	0	4	0.437	4	1	4_0.gif
10	1	2	0	2	0.31	2	1	2_0.gif
11	1	3	0	3	0.602	3	1	3_0.gif
12	1	4	0	4	0.41	4	1	4_0.gif
13	1	3	0	3	0.409	3	1	3_0.gif
14	1	4	0	4	0.402	4	1	4_0.gif
15	1	3	0	3	0.287	3	1	3_0.gif
16	1	1	2	6	0	4	n/a	1_2.gif
17	1	4	2	6	0	3	n/a	4_2.gif
18	1	2	2	1	0.193	1	1	2_2.gif
19	1	1	2	4	0.125	4	1	1_2.gif
20	1	3	2	2	0.077	2	1	3_2.gif
21	1	2	2	1	0.088	1	1	2_2.gif
22	1	3	2	3	0.03	3	1	3_2.gif
23	1	2	2	2	0.051	2	1	2_2.gif
24	1	3	2	2	0.013	3	0	3_2.gif
25	1	4	2	2	0.052	2	1	4_2.gif
26	1	1	2	3	0.083	3	1	1_2.gif
27	1	2	2	4	0.13	4	1	2_2.gif
28	1	3	2	1	0.208	1	1	3_2.gif
29	1	4	2	2	0.218	2	1	4_2.gif
30	1	3	2	3	0.175	3	1	3_2.gif
31	1	4	2	4	0.185	4	1	4_2.gif
32.001	1	2	0	3	0.249	2	0	2_0.gif
33.001	1	3	0	3	0.437	3	1	3_0.gif
34.001	1	1	0	1	0.344	1	1	1_0.gif
35.001	1	2	0	2	0.295	2	1	2_0.gif
36.001	1	1	0	1	0.353	1	1	1_0.gif
37.001	1	2	0	2	0.696	2	1	2_0.gif
38.001	1	4	0	2	0.014	4	0	4_0.gif
39.001	1	1	0	1	0.433	1	1	1_0.gif
40.001	1	3	0	3	0.437	3	1	3_0.gif
41.001	1	4	0	4	0.424	4	1	4_0.gif
42.001	1	3	0	3	0.423	3	1	3_0.gif
43.001	1	2	0	2	0.345	2	1	2_0.gif
44.001	1	1	0	2	0.014	1	0	1_0.gif
45.001	1	3	0	3	0.311	3	1	3_0.gif
46.001	1	4	0	4	0.438	4	1	4_0.gif
47.001	1	3	0	3	0.403	3	1	3_0.gif
48.002	1	2	2	6	0	4	n/a	2_2.gif
49.002	1	1	2	6	0	3	n/a	1_2.gif
50.002	1	3	2	2	0.219	2	1	3_2.gif
51.002	1	1	2	2	0.013	1	0	1_2.gif
52.002	1	2	2	3	0.181	3	1	2_2.gif
53.002	1	3	2	1	0.165	1	1	3_2.gif
54.002	1	1	2	2	0.136	2	1	1_2.gif
55.002	1	2	2	3	0.051	3	1	2_2.gif
56.002	1	1	2	1	0.138	1	1	1_2.gif
57.002	1	4	2	2	0.064	2	1	4_2.gif
58.002	1	2	2	1	0.035	1	1	2_2.gif
59.002	1	3	2	4	0.1	4	1	3_2.gif
60.002	1	2	2	2	0.148	2	1	2_2.gif
61.002	1	4	2	3	0.227	3	1	4_2.gif
62.002	1	1	2	2	0.19	2	1	1_2.gif
63.002	1	4	2	4	0.218	4	1	4_2.gif
64.003	1	1	0	1	0.25	1	1	1_0.gif
65.003	1	3	0	3	0.808	3	1	3_0.gif
66.003	1	1	0	3	0.013	1	0	1_0.gif
67.003	1	3	0	3	0.363	3	1	3_0.gif
68.003	1	2	0	2	0.433	2	1	2_0.gif
69.003	1	1	0	2	0.013	1	0	1_0.gif
70.003	1	4	0	4	0.327	4	1	4_0.gif
71.003	1	3	0	3	0.377	3	1	3_0.gif
72.003	1	2	0	2	0.37	2	1	2_0.gif
73.003	1	1	0	1	0.338	1	1	1_0.gif
74.003	1	2	0	2	0.379	2	1	2_0.gif
75.003	1	4	0	4	0.317	4	1	4_0.gif
76.003	1	3	0	3	0.369	3	1	3_0.gif
77.003	1	1	0	1	0.312	1	1	1_0.gif
78.003	1	3	0	3	0.533	3	1	3_0.gif
79.003	1	4	0	4	0.437	4	1	4_0.gif
80.003	1	1	2	1	0.422	3	0	1_2.gif
81.003	1	4	2	6	0	4	n/a	4_2.gif
82.003	1	2	2	1	0.083	1	1	2_2.gif
83.003	1	3	2	4	0.141	4	1	3_2.gif
84.003	1	4	2	2	0.15	2	1	4_2.gif
85.003	1	3	2	2	0.014	3	0	3_2.gif
86.003	1	1	2	4	0.056	4	1	1_2.gif
87.003	1	2	2	3	0.196	3	1	2_2.gif
88.003	1	4	2	1	0.158	1	1	4_2.gif
89.003	1	1	2	2	0.11	2	1	1_2.gif
90.003	1	4	2	2	0.014	4	0	4_2.gif
91.003	1	3	2	1	0.117	1	1	3_2.gif
92.003	1	1	2	4	0.077	4	1	1_2.gif
93.003	1	2	2	3	0.13	3	1	2_2.gif
94.003	1	3	2	1	0.236	1	1	3_2.gif
95.003	1	2	2	2	0.268	2	1	2_2.gif
96.01	1	1	0	3	0.202	1	0	1_0.gif
97.01	1	2	0	1	0.569	2	0	2_0.gif
98.01	1	4	0	2	0.015	4	0	4_0.gif
99.01	1	3	0	3	0.32	3	1	3_0.gif
100.01	1	2	0	2	0.421	2	1	2_0.gif
101.01	1	3	0	2	0.015	3	0	3_0.gif
102.01	1	1	0	1	0.343	1	1	1_0.gif
103.01	1	2	0	2	0.329	2	1	2_0.gif
104.01	1	4	0	2	0.014	4	0	4_0.gif
105.01	1	1	0	1	0.296	1	1	1_0.gif
106.01	1	3	0	3	0.398	3	1	3_0.gif
107.01	1	4	0	4	0.318	4	1	4_0.gif
108.01	1	3	0	3	0.392	3	1	3_0.gif
109.01	1	1	0	1	0.308	1	1	1_0.gif
110.01	1	2	0	2	0.363	2	1	2_0.gif
111.01	1	4	0	2	0.014	4	0	4_0.gif
112.01	1	2	2	6	0	2	n/a	2_2.gif
113.011	1	3	2	6	0	4	n/a	3_2.gif
114.011	1	2	2	2	0.296	2	1	2_2.gif
115.011	1	4	2	2	0.013	3	0	4_2.gif
116.011	1	2	2	2	0.141	2	1	2_2.gif
117.011	1	4	2	4	0.093	4	1	4_2.gif
118.011	1	3	2	2	0.036	2	1	3_2.gif
119.011	1	4	2	4	0.07	4	1	4_2.gif
120.011	1	3	2	3	0.152	3	1	3_2.gif
121.011	1	1	2	4	0.102	4	1	1_2.gif
122.011	1	2	2	3	0.077	3	1	2_2.gif
123.011	1	3	2	1	0.609	1	1	3_2.gif
124.011	1	4	2	2	0.391	2	1	4_2.gif
125.011	1	2	2	6	0	3	n/a	2_2.gif
126.011	1	3	2	6	0	4	n/a	3_2.gif
127.016	1	4	2	2	0.136	2	1	4_2.gif
128.017	1	3	0	3	0.864	3	1	3_0.gif
129.017	1	4	0	3	0.013	4	0	4_0.gif
130.017	1	2	0	2	0.354	2	1	2_0.gif
131.017	1	1	0	2	0.013	1	0	1_0.gif
132.017	1	3	0	3	0.35	3	1	3_0.gif
133.017	1	4	0	4	0.372	4	1	4_0.gif
134.017	1	3	0	3	0.4	3	1	3_0.gif
135.017	1	4	0	4	0.397	4	1	4_0.gif
136.017	1	3	0	3	0.417	3	1	3_0.gif
137.017	1	4	0	4	0.289	4	1	4_0.gif
138.017	1	2	0	2	0.373	2	1	2_0.gif
139.017	1	4	0	4	0.475	4	1	4_0.gif
140.017	1	3	0	3	0.375	3	1	3_0.gif
141.017	1	2	0	2	0.389	2	1	2_0.gif
142.017	1	4	0	4	0.36	4	1	4_0.gif
143.017	1	3	0	3	0.28	3	1	3_0.gif
144.017	1	1	2	6	0	4	n/a	1_2.gif
145.017	1	4	2	6	0	3	n/a	4_2.gif
146.017	1	2	2	1	0.229	1	1	2_2.gif
147.017	1	4	2	4	0.192	4	1	4_2.gif
148.017	1	3	2	2	0.12	2	1	3_2.gif
149.017	1	4	2	4	0.123	4	1	4_2.gif
150.017	1	3	2	3	0.107	3	1	3_2.gif
151.017	1	1	2	4	0.146	4	1	1_2.gif
152.017	1	2	2	3	0.142	3	1	2_2.gif
153.017	1	4	2	1	0.23	1	1	4_2.gif
154.017	1	1	2	2	0.169	2	1	1_2.gif
155.017	1	2	2	4	0.25	4	1	2_2.gif
156.017	1	4	2	1	0.214	1	1	4_2.gif
157.017	1	2	2	2	0.228	2	1	2_2.gif
158.017	1	4	2	4	0.277	4	1	4_2.gif
159.017	1	2	2	2	0.28	2	1	2_2.gif
160.02	1	3	0	4	0.351	3	0	3_0.gif
161.02	1	4	0	4	0.584	4	1	4_0.gif
162.02	1	3	0	3	0.399	3	1	3_0.gif
163.02	1	2	0	2	0.312	2	1	2_0.gif
164.02	1	4	0	4	0.3	4	1	4_0.gif
165.02	1	1	0	1	0.374	1	1	1_0.gif
166.02	1	4	0	4	0.309	4	1	4_0.gif
167.02	1	1	0	1	0.34	1	1	1_0.gif
168.02	1	3	0	3	0.419	3	1	3_0.gif
169.02	1	2	0	2	0.381	2	1	2_0.gif
170.02	1	3	0	3	0.315	3	1	3_0.gif
171.02	1	4	0	4	0.406	4	1	4_0.gif
172.02	1	1	0	1	0.337	1	1	1_0.gif
173.02	1	2	0	2	0.325	2	1	2_0.gif
174.02	1	4	0	2	0.014	4	0	4_0.gif
175.02	1	2	0	2	0.372	2	1	2_0.gif
176.021	1	1	2	6	0	4	n/a	1_2.gif
177.021	1	2	2	6	0	2	n/a	2_2.gif
178.021	1	4	2	1	0.227	1	1	4_2.gif
179.021	1	1	2	2	0.16	2	1	1_2.gif
180.021	1	2	2	4	0.172	4	1	2_2.gif
181.021	1	3	2	1	0.159	1	1	3_2.gif
182.021	1	2	2	2	0.123	2	1	2_2.gif
183.021	1	4	2	3	0.064	3	1	4_2.gif
184.021	1	3	2	2	0.053	2	1	3_2.gif
185.021	1	4	2	4	0.055	4	1	4_2.gif
186.021	1	3	2	3	0.05	3	1	3_2.gif
187.021	1	1	2	4	0.014	4	1	1_2.gif
188.021	1	2	2	3	0.014	3	1	2_2.gif
189.021	1	4	2	1	0.014	1	1	4_2.gif
190.021	1	3	2	2	0.014	2	1	3_2.gif
191.021	1	4	2	4	0.014	4	1	4_2.gif
192.021	1	1	0	3	0.129	1	0	1_0.gif
193.021	1	4	0	4	0.417	4	1	4_0.gif
194.021	1	2	0	2	0.367	2	1	2_0.gif
195.021	1	1	0	2	0.014	1	0	1_0.gif
196.021	1	4	0	4	0.294	4	1	4_0.gif
197.021	1	1	0	1	0.337	1	1	1_0.gif
198.021	1	4	0	4	0.361	4	1	4_0.gif
199.021	1	1	0	1	0.27	1	1	1_0.gif
200.021	1	2	0	2	0.376	2	1	2_0.gif
201.021	1	4	0	4	0.427	4	1	4_0.gif
202.021	1	1	0	1	0.285	1	1	1_0.gif
203.021	1	2	0	2	0.395	2	1	2_0.gif
204.021	1	4	0	4	0.4	4	1	4_0.gif
205.021	1	2	0	2	0.365	2	1	2_0.gif
206.021	1	3	0	3	0.367	3	1	3_0.gif
207.021	1	4	0	4	0.383	4	1	4_0.gif
208.022	1	3	2	6	0	3	n/a	3_2.gif
209.022	1	4	2	6	0	4	n/a	4_2.gif
210.022	1	3	2	3	0.232	3	1	3_2.gif
211.022	1	1	2	4	0.12	4	1	1_2.gif
212.022	1	4	2	3	0.041	3	1	4_2.gif
213.022	1	2	2	1	0.013	1	1	2_2.gif
214.022	1	1	2	4	0.014	4	1	1_2.gif
215.022	1	3	2	2	0.022	2	1	3_2.gif
216.022	1	2	2	1	0.088	1	1	2_2.gif
217.022	1	3	2	3	0.143	3	1	3_2.gif
218.022	1	2	2	2	0.015	2	1	2_2.gif
219.022	1	3	2	3	0.014	3	1	3_2.gif
220.022	1	4	2	2	0.015	2	1	4_2.gif
221.022	1	1	2	3	0.014	3	1	1_2.gif
222.022	1	2	2	4	0.135	4	1	2_2.gif
223.022	1	3	2	1	0.025	1	1	3_2.gif
224.023	1	4	0	2	0.013	4	0	4_0.gif
225.023	1	3	0	3	0.412	3	1	3_0.gif
226.023	1	4	0	4	0.257	4	1	4_0.gif
227.023	1	2	0	2	0.407	2	1	2_0.gif
228.023	1	3	0	3	0.5	3	1	3_0.gif
229.023	1	1	0	1	0.335	1	1	1_0.gif
230.023	1	2	0	2	0.347	2	1	2_0.gif
231.023	1	1	0	1	0.353	1	1	1_0.gif
232.023	1	2	0	2	0.334	2	1	2_0.gif
233.023	1	4	0	4	0.366	4	1	4_0.gif
234.023	1	1	0	1	0.36	1	1	1_0.gif
235.023	1	3	0	3	0.396	3	1	3_0.gif
236.023	1	4	0	6	0	4	n/a	4_0.gif
237.023	1	3	0	3	0.454	3	1	3_0.gif
238.023	1	2	0	2	0.398	2	1	2_0.gif
239.023	1	1	0	1	0.341	1	1	1_0.gif
240.024	1	3	2	6	0	2	n/a	3_2.gif
241.024	1	4	2	6	0	1	n/a	4_2.gif
242.024	1	3	2	3	0.2	3	1	3_2.gif
243.024	1	2	2	4	0.014	4	1	2_2.gif
244.024	1	1	2	3	0.028	3	1	1_2.gif
245.024	1	3	2	2	0.013	2	1	3_2.gif
246.024	1	1	2	1	0.015	1	1	1_2.gif
247.024	1	2	2	3	0.036	3	1	2_2.gif
248.024	1	3	2	1	0.013	1	1	3_2.gif
249.024	1	1	2	2	0.013	2	1	1_2.gif
250.024	1	2	2	3	0.013	3	1	2_2.gif
251.024	1	1	2	1	0.021	1	1	1_2.gif
252.024	1	4	2	2	0.013	2	1	4_2.gif
253.024	1	2	2	1	0.015	1	1	2_2.gif
254.024	1	3	2	4	0.014	4	1	3_2.gif
255.024	1	2	2	2	0.013	2	1	2_2.gif
