onset	duration	nback_display	trial_type	response	response_time	correct_response	correct	stim_file
0	1	2	0	2	0.845	2	1	2_0.gif
1	1	1	0	2	0.002	1	0	1_0.gif
2	1	3	0	3	0.483	3	1	3_0.gif
3	1	2	0	2	0.46	2	1	2_0.gif
4	1	1	0	1	0.379	1	1	1_0.gif
5	1	2	0	2	0.472	2	1	2_0.gif
6	1	3	0	3	0.392	3	1	3_0.gif
7	1	2	0	2	0.547	2	1	2_0.gif
8	1	4	0	4	0.831	4	1	4_0.gif
9	1	1	0	4	0.003	1	0	1_0.gif
10	1	3	0	3	0.545	3	1	3_0.gif
11	1	4	0	4	0.778	4	1	4_0.gif
12	1	2	0	4	0.003	2	0	2_0.gif
13	1	4	0	4	0.759	4	1	4_0.gif
14	1	1	0	1	0.556	1	1	1_0.gif
15	1	4	0	4	0.914	4	1	4_0.gif
16	1	1	2	4	0.003	1	0	1_2.gif
17	1	3	2	6	0	4	n/a	3_2.gif
18	1	2	2	1	0.293	1	1	2_2.gif
19	1	4	2	3	0.266	3	1	4_2.gif
20	1	3	2	2	0.254	2	1	3_2.gif
21	1	4	2	4	0.116	4	1	4_2.gif
22	1	3	2	3	0.003	3	1	3_2.gif
23	1	1	2	4	0.04	4	1	1_2.gif
24	1	2	2	3	0.003	3	1	2_2.gif
25	1	4	2	1	0.003	1	1	4_2.gif
26	1	2	2	2	0.003	2	1	2_2.gif
27	1	1	2	4	0.003	4	1	1_2.gif
28	1	2	2	2	0.003	2	1	2_2.gif
29	1	4	2	1	0.003	1	1	4_2.gif
30	1	2	2	2	0.004	2	1	2_2.gif
31	1	3	2	4	0.003	4	1	3_2.gif
32	1	1	0	2	0.003	1	0	1_0.gif
33	1	4	0	4	0.867	4	1	4_0.gif
34	1	2	0	4	0.003	2	0	2_0.gif
35	1	3	0	3	0.894	3	1	3_0.gif
36	1	1	0	3	0.003	1	0	1_0.gif
37	1	2	0	1	0.004	2	0	2_0.gif
38	1	1	0	2	0.003	1	0	1_0.gif
39	1	2	0	1	0.004	2	0	2_0.gif
40	1	4	0	2	0.004	4	0	4_0.gif
41	1	1	0	1	0.777	1	1	1_0.gif
42	1	3	0	1	0.003	3	0	3_0.gif
43	1	4	0	3	0.003	4	0	4_0.gif
44	1	2	0	4	0.004	2	0	2_0.gif
45	1	4	0	2	0.005	4	0	4_0.gif
46	1	1	0	4	0.004	1	0	1_0.gif
47	1	3	0	1	0.003	3	0	3_0.gif
48.001	1	2	2	3	0.003	1	0	2_2.gif
49.001	1	4	2	6	0	3	n/a	4_2.gif
50.001	1	2	2	2	0.216	2	1	2_2.gif
51.001	1	3	2	4	0.183	4	1	3_2.gif
52.001	1	4	2	2	0.057	2	1	4_2.gif
53.001	1	2	2	3	0.003	3	1	2_2.gif
54.001	1	3	2	4	0.003	4	1	3_2.gif
55.001	1	2	2	2	0.003	2	1	2_2.gif
56.001	1	1	2	3	0.003	3	1	1_2.gif
57.001	1	3	2	2	0.003	2	1	3_2.gif
58.001	1	1	2	1	0.004	1	1	1_2.gif
59.001	1	3	2	3	0.003	3	1	3_2.gif
60.001	1	4	2	1	0.035	1	1	4_2.gif
61.001	1	2	2	3	0.023	3	1	2_2.gif
62.001	1	4	2	4	0.003	4	1	4_2.gif
63.001	1	2	2	2	0.047	2	1	2_2.gif
64.001	1	3	0	4	0.003	3	0	3_0.gif
65.001	1	2	0	3	0.082	2	0	2_0.gif
66.001	1	4	0	4	0.393	4	1	4_0.gif
67.001	1	1	0	1	0.367	1	1	1_0.gif
68.001	1	3	0	3	0.38	3	1	3_0.gif
69.001	1	1	0	1	0.469	1	1	1_0.gif
70.001	1	4	0	4	0.428	4	1	4_0.gif
71.001	1	1	0	1	0.4	1	1	1_0.gif
72.001	1	2	0	2	0.511	2	1	2_0.gif
73.001	1	3	0	3	0.408	3	1	3_0.gif
74.001	1	1	0	1	0.56	1	1	1_0.gif
75.001	1	4	0	4	0.563	4	1	4_0.gif
76.001	1	1	0	1	0.5	1	1	1_0.gif
77.001	1	3	0	3	0.473	3	1	3_0.gif
78.001	1	2	0	2	0.438	2	1	2_0.gif
79.001	1	4	0	4	0.388	4	1	4_0.gif
80.001	1	1	2	6	0	2	n/a	1_2.gif
81.001	1	3	2	6	0	4	n/a	3_2.gif
82.001	1	1	2	1	0.162	1	1	1_2.gif
83.001	1	3	2	3	0.004	3	1	3_2.gif
84.001	1	4	2	1	0.004	1	1	4_2.gif
85.001	1	1	2	3	0.003	3	1	1_2.gif
86.001	1	2	2	4	0.065	4	1	2_2.gif
87.001	1	3	2	1	0.013	1	1	3_2.gif
88.001	1	4	2	2	0.004	2	1	4_2.gif
89.001	1	2	2	3	0.003	3	1	2_2.gif
90.001	1	4	2	4	0.03	4	1	4_2.gif
91.001	1	1	2	2	0.003	2	1	1_2.gif
92.001	1	3	2	4	0.003	4	1	3_2.gif
93.001	1	1	2	1	0.004	1	1	1_2.gif
94.001	1	3	2	3	0.003	3	1	3_2.gif
95.001	1	2	2	3	0.722	1	0	2_2.gif
96.002	1	1	0	3	0.003	1	0	1_0.gif
97.002	1	3	0	1	0.003	3	0	3_0.gif
98.002	1	4	0	4	0.691	4	1	4_0.gif
99.002	1	1	0	1	0.458	1	1	1_0.gif
100.002	1	3	0	3	0.38	3	1	3_0.gif
101.002	1	4	0	4	0.342	4	1	4_0.gif
102.002	1	1	0	1	0.33	1	1	1_0.gif
103.002	1	4	0	4	0.398	4	1	4_0.gif
104.002	1	3	0	3	0.366	3	1	3_0.gif
105.002	1	4	0	4	0.538	4	1	4_0.gif
106.002	1	2	0	2	0.422	2	1	2_0.gif
107.002	1	1	0	1	0.396	1	1	1_0.gif
108.002	1	2	0	2	0.539	2	1	2_0.gif
109.002	1	4	0	4	0.508	4	1	4_0.gif
110.002	1	2	0	2	0.397	2	1	2_0.gif
111.002	1	4	0	4	0.562	4	1	4_0.gif
112.002	1	2	2	6	0	2	n/a	2_2.gif
113.002	1	3	2	6	0	4	n/a	3_2.gif
114.002	1	1	2	2	0.26	2	1	1_2.gif
115.002	1	3	2	3	0.072	3	1	3_2.gif
116.002	1	4	2	1	0.003	1	1	4_2.gif
117.002	1	1	2	4	0.796	3	0	1_2.gif
118.002	1	3	2	4	0.003	4	1	3_2.gif
119.002	1	1	2	3	0.604	1	0	1_2.gif
120.002	1	2	2	1	0.587	3	0	2_2.gif
121.002	1	1	2	2	0.58	1	0	1_2.gif
122.002	1	2	2	1	0.465	2	0	2_2.gif
123.002	1	3	2	2	0.663	1	0	3_2.gif
124.002	1	1	2	3	0.383	2	0	1_2.gif
125.002	1	3	2	1	0.37	3	0	3_2.gif
126.002	1	2	2	3	0.264	1	0	2_2.gif
127.002	1	4	2	2	0.321	3	0	4_2.gif
128.002	1	3	0	4	0.145	3	0	3_0.gif
129.002	1	2	0	2	0.365	2	1	2_0.gif
130.002	1	3	0	3	0.364	3	1	3_0.gif
131.002	1	1	0	1	0.408	1	1	1_0.gif
132.002	1	2	0	2	0.392	2	1	2_0.gif
133.002	1	3	0	3	0.34	3	1	3_0.gif
134.002	1	2	0	2	0.387	2	1	2_0.gif
135.002	1	1	0	1	0.54	1	1	1_0.gif
136.002	1	4	0	4	0.483	4	1	4_0.gif
137.002	1	2	0	2	0.37	2	1	2_0.gif
138.002	1	4	0	4	0.552	4	1	4_0.gif
139.002	1	3	0	3	0.39	3	1	3_0.gif
140.002	1	4	0	4	0.542	4	1	4_0.gif
141.002	1	3	0	3	0.423	3	1	3_0.gif
142.002	1	4	0	4	0.411	4	1	4_0.gif
143.002	1	3	0	3	0.488	3	1	3_0.gif
144.002	1	2	2	6	0	4	n/a	2_2.gif
145.002	1	4	2	6	0	3	n/a	4_2.gif
146.003	1	2	2	2	0.421	2	1	2_2.gif
147.003	1	3	2	4	0.19	4	1	3_2.gif
148.003	1	4	2	2	0.041	2	1	4_2.gif
149.003	1	1	2	3	0.003	3	1	1_2.gif
150.003	1	3	2	4	0.003	4	1	3_2.gif
151.003	1	2	2	1	0.003	1	1	2_2.gif
152.003	1	4	2	3	0.003	3	1	4_2.gif
153.003	1	2	2	5	0.003	2	n/a	2_2.gif
154.003	1	1	2	4	0.003	4	1	1_2.gif
155.003	1	3	2	2	0.003	2	1	3_2.gif
156.003	1	1	2	3	0.8	1	0	1_2.gif
157.003	1	3	2	3	0.003	3	1	3_2.gif
158.003	1	1	2	3	0.599	1	0	1_2.gif
159.003	1	3	2	1	0.789	3	0	3_2.gif
160.003	1	4	0	6	0	4	n/a	4_0.gif
161.003	1	1	0	4	0.111	1	0	1_0.gif
162.003	1	4	0	4	0.482	4	1	4_0.gif
163.003	1	1	0	1	0.504	1	1	1_0.gif
164.003	1	2	0	2	0.412	2	1	2_0.gif
165.003	1	3	0	3	0.348	3	1	3_0.gif
166.003	1	1	0	1	0.506	1	1	1_0.gif
167.003	1	2	0	2	0.46	2	1	2_0.gif
168.003	1	3	0	3	0.452	3	1	3_0.gif
169.003	1	2	0	2	0.444	2	1	2_0.gif
170.003	1	3	0	3	0.424	3	1	3_0.gif
171.003	1	1	0	1	0.492	1	1	1_0.gif
172.003	1	4	0	4	0.56	4	1	4_0.gif
173.003	1	3	0	3	0.364	3	1	3_0.gif
174.003	1	1	0	1	0.34	1	1	1_0.gif
175.003	1	4	0	4	0.396	4	1	4_0.gif
176.003	1	2	2	6	0	1	n/a	2_2.gif
177.003	1	3	2	6	0	4	n/a	3_2.gif
178.003	1	2	2	2	0.128	2	1	2_2.gif
179.003	1	4	2	3	0.003	3	1	4_2.gif
180.003	1	2	2	2	0.003	2	1	2_2.gif
181.003	1	3	2	4	0.003	4	1	3_2.gif
182.003	1	1	2	2	0.003	2	1	1_2.gif
183.003	1	4	2	3	0.004	3	1	4_2.gif
184.003	1	1	2	4	0.452	1	0	1_2.gif
185.003	1	3	2	1	0.24	4	0	3_2.gif
186.003	1	1	2	3	0.196	1	0	1_2.gif
187.003	1	4	2	1	0.003	3	0	4_2.gif
188.003	1	1	2	3	0.065	1	0	1_2.gif
189.003	1	4	2	1	0.003	4	0	4_2.gif
190.003	1	1	2	4	0.003	1	0	1_2.gif
191.003	1	3	2	1	0.228	4	0	3_2.gif
192.004	1	1	0	1	0.92	1	1	1_0.gif
193.004	1	3	0	1	0.003	3	0	3_0.gif
194.004	1	2	0	2	0.482	2	1	2_0.gif
195.004	1	1	0	1	0.485	1	1	1_0.gif
196.004	1	3	0	3	0.4	3	1	3_0.gif
197.004	1	2	0	2	0.36	2	1	2_0.gif
198.004	1	1	0	1	0.446	1	1	1_0.gif
199.004	1	2	0	2	0.415	2	1	2_0.gif
200.004	1	3	0	3	0.492	3	1	3_0.gif
201.004	1	2	0	2	0.415	2	1	2_0.gif
202.004	1	4	0	4	0.872	4	1	4_0.gif
203.004	1	1	0	4	0.003	1	0	1_0.gif
204.004	1	3	0	3	0.513	3	1	3_0.gif
205.004	1	4	0	4	0.404	4	1	4_0.gif
206.004	1	2	0	2	0.344	2	1	2_0.gif
207.004	1	4	0	4	0.384	4	1	4_0.gif
208.004	1	1	2	6	0	2	n/a	1_2.gif
209.004	1	4	2	6	0	4	n/a	4_2.gif
210.004	1	1	2	1	0.188	1	1	1_2.gif
211.004	1	3	2	4	0.021	4	1	3_2.gif
212.004	1	2	2	1	0.003	1	1	2_2.gif
213.004	1	4	2	3	0.004	3	1	4_2.gif
214.004	1	3	2	2	0.003	2	1	3_2.gif
215.004	1	4	2	4	0.014	4	1	4_2.gif
216.004	1	3	2	3	0.003	3	1	3_2.gif
217.004	1	1	2	4	0.003	4	1	1_2.gif
218.004	1	2	2	3	0.004	3	1	2_2.gif
219.004	1	4	2	2	0.783	1	0	4_2.gif
220.004	1	2	2	4	0.927	2	0	2_2.gif
221.004	1	1	2	4	0.003	4	1	1_2.gif
222.004	1	2	2	1	0.689	2	0	2_2.gif
223.004	1	4	2	2	0.682	1	0	4_2.gif
224.004	1	2	0	2	0.788	2	1	2_0.gif
225.004	1	3	0	3	0.401	3	1	3_0.gif
226.004	1	1	0	1	0.372	1	1	1_0.gif
227.004	1	4	0	4	0.611	4	1	4_0.gif
228.004	1	2	0	2	0.439	2	1	2_0.gif
229.004	1	3	0	3	0.401	3	1	3_0.gif
230.004	1	1	0	1	0.479	1	1	1_0.gif
231.004	1	2	0	2	0.466	2	1	2_0.gif
232.004	1	1	0	1	0.582	1	1	1_0.gif
233.004	1	2	0	2	0.39	2	1	2_0.gif
234.004	1	4	0	4	0.676	4	1	4_0.gif
235.004	1	1	0	1	0.603	1	1	1_0.gif
236.004	1	3	0	3	0.556	3	1	3_0.gif
237.004	1	4	0	4	0.569	4	1	4_0.gif
238.004	1	2	0	2	0.496	2	1	2_0.gif
239.004	1	4	0	4	0.366	4	1	4_0.gif
240.005	1	1	2	6	0	2	n/a	1_2.gif
241.005	1	3	2	6	0	4	n/a	3_2.gif
242.005	1	2	2	1	0.272	1	1	2_2.gif
243.005	1	4	2	3	0.226	3	1	4_2.gif
244.005	1	2	2	2	0.324	2	1	2_2.gif
245.005	1	3	2	4	0.315	4	1	3_2.gif
246.005	1	4	2	2	0.131	2	1	4_2.gif
247.005	1	2	2	3	0.003	3	1	2_2.gif
248.005	1	3	2	4	0.004	4	1	3_2.gif
249.005	1	2	2	2	0.003	2	1	2_2.gif
250.005	1	1	2	3	0.003	3	1	1_2.gif
251.005	1	3	2	2	0.005	2	1	3_2.gif
252.005	1	1	2	3	0.718	1	0	1_2.gif
253.005	1	3	2	1	0.832	3	0	3_2.gif
254.005	1	4	2	1	0.003	1	1	4_2.gif
255.005	1	2	2	3	0.036	3	1	2_2.gif
