onset	duration	nback_display	trial_type	response	response_time	correct_response	correct	stim_file
0	1	2	0	6	0	2	n/a	2_0.gif
1	1	1	0	2	0.562	1	0	1_0.gif
2	1	4	0	1	0.225	4	0	4_0.gif
3	1	2	0	4	0.531	2	0	2_0.gif
4	1	1	0	2	0.059	1	0	1_0.gif
5	1	4	0	4	0.003	4	1	4_0.gif
6	1	2	0	4	0.581	2	0	2_0.gif
7	1	1	0	2	0.447	1	0	1_0.gif
8	1	2	0	2	0.003	2	1	2_0.gif
9	1	3	0	2	0.003	3	0	3_0.gif
10	1	1	0	3	0.003	1	0	1_0.gif
11	1	3	0	1	0.347	3	0	3_0.gif
12	1	4	0	3	0.156	4	0	4_0.gif
13	1	1	0	1	0.003	1	1	1_0.gif
14	1	3	0	4	0.283	3	0	3_0.gif
15	1	1	0	1	0.644	1	1	1_0.gif
16	1	4	2	6	0	3	n/a	4_2.gif
17	1	2	2	6	0	1	n/a	2_2.gif
18	1	1	2	4	0.982	4	1	1_2.gif
19	1	3	2	4	0.003	2	0	3_2.gif
20	1	2	2	1	0.143	1	1	2_2.gif
21	1	4	2	3	0.154	3	1	4_2.gif
22	1	3	2	2	0.576	2	1	3_2.gif
23	1	1	2	4	0.932	4	1	1_2.gif
24	1	4	2	4	0.003	3	0	4_2.gif
25	1	2	2	6	0	1	n/a	2_2.gif
26	1	4	2	4	0.59	4	1	4_2.gif
27	1	1	2	2	0.446	2	1	1_2.gif
28	1	4	2	1	0.818	4	0	4_2.gif
29	1	2	2	1	0.003	1	1	2_2.gif
30	1	4	2	4	0.366	4	1	4_2.gif
31	1	1	2	6	0	2	n/a	1_2.gif
32	1	3	0	3	0.967	3	1	3_0.gif
33	1	4	0	3	0.003	4	0	4_0.gif
34	1	2	0	4	0.166	2	0	2_0.gif
35	1	1	0	2	0.052	1	0	1_0.gif
36	1	2	0	1	0.117	2	0	2_0.gif
37	1	1	0	2	0.003	1	0	1_0.gif
38	1	2	0	2	0.503	2	1	2_0.gif
39	1	1	0	1	0.41	1	1	1_0.gif
40	1	2	0	2	0.381	2	1	2_0.gif
41	1	3	0	3	0.531	3	1	3_0.gif
42	1	4	0	1	0.544	4	0	4_0.gif
43	1	2	0	1	0.003	2	0	2_0.gif
44	1	3	0	2	0.208	3	0	3_0.gif
45	1	1	0	3	0.842	1	0	1_0.gif
46	1	4	0	3	0.003	4	0	4_0.gif
47	1	3	0	4	0.003	3	0	3_0.gif
48	1	1	2	3	0.004	4	0	1_2.gif
49	1	2	2	6	0	3	n/a	2_2.gif
50	1	3	2	1	0.474	1	1	3_2.gif
51	1	1	2	2	0.275	2	1	1_2.gif
52	1	2	2	1	0.851	3	0	2_2.gif
53	1	3	2	1	0.004	1	1	3_2.gif
54	1	4	2	3	0.935	2	0	4_2.gif
55	1	1	2	3	0.004	3	1	1_2.gif
56	1	2	2	4	0.357	4	1	2_2.gif
57	1	1	2	2	0.69	1	0	1_2.gif
58	1	4	2	2	0.004	2	1	4_2.gif
59	1	2	2	6	0	1	n/a	2_2.gif
60	1	4	2	6	0	4	n/a	4_2.gif
61	1	3	2	6	0	2	n/a	3_2.gif
62	1	1	2	4	0.522	4	1	1_2.gif
63	1	2	2	3	0.623	3	1	2_2.gif
64.001	1	1	0	3	0.003	1	0	1_0.gif
65.001	1	3	0	1	0.003	3	0	3_0.gif
66.001	1	1	0	2	0.506	1	0	1_0.gif
67.001	1	2	0	6	0	2	n/a	2_0.gif
68.001	1	1	0	3	0.091	1	0	1_0.gif
69.001	1	3	0	6	0	3	n/a	3_0.gif
70.001	1	1	0	3	0.191	1	0	1_0.gif
71.001	1	2	0	2	0.738	2	1	2_0.gif
72.001	1	4	0	2	0.003	4	0	4_0.gif
73.001	1	3	0	4	0.003	3	0	3_0.gif
74.001	1	4	0	4	0.693	4	1	4_0.gif
75.001	1	1	0	4	0.003	1	0	1_0.gif
76.001	1	3	0	1	0.003	3	0	3_0.gif
77.001	1	4	0	3	0.003	4	0	4_0.gif
78.001	1	3	0	4	0.003	3	0	3_0.gif
79.001	1	4	0	6	0	4	n/a	4_0.gif
80.001	1	2	2	4	0.318	3	0	2_2.gif
81.001	1	1	2	2	0.533	4	0	1_2.gif
82.001	1	4	2	6	0	2	n/a	4_2.gif
83.001	1	3	2	2	0.364	1	0	3_2.gif
84.001	1	1	2	1	0.123	4	0	1_2.gif
85.001	1	4	2	4	0.091	3	0	4_2.gif
86.001	1	3	2	3	0.019	1	0	3_2.gif
87.001	1	2	2	6	0	4	n/a	2_2.gif
88.001	1	3	2	6	0	3	n/a	3_2.gif
89.001	1	4	2	6	0	2	n/a	4_2.gif
90.001	1	1	2	2	0.151	3	0	1_2.gif
91.001	1	2	2	3	0.003	4	0	2_2.gif
92.001	1	4	2	4	0.003	1	0	4_2.gif
93.001	1	2	2	1	0.003	2	0	2_2.gif
94.001	1	1	2	2	0.146	4	0	1_2.gif
95.001	1	3	2	6	0	2	n/a	3_2.gif
96.001	1	4	0	4	0.823	4	1	4_0.gif
97.001	1	1	0	4	0.003	1	0	1_0.gif
98.001	1	2	0	1	0.003	2	0	2_0.gif
99.001	1	1	0	2	0.003	1	0	1_0.gif
100.001	1	4	0	4	0.004	4	1	4_0.gif
101.001	1	3	0	3	0.636	3	1	3_0.gif
102.001	1	2	0	3	0.004	2	0	2_0.gif
103.001	1	3	0	3	0.457	3	1	3_0.gif
104.001	1	1	0	4	0.83	1	0	1_0.gif
105.001	1	4	0	4	0.004	4	1	4_0.gif
106.001	1	2	0	4	0.004	2	0	2_0.gif
107.001	1	4	0	2	0.004	4	0	4_0.gif
108.001	1	1	0	4	0.121	1	0	1_0.gif
109.001	1	3	0	1	0.12	3	0	3_0.gif
110.001	1	4	0	6	0	4	n/a	4_0.gif
111.001	1	1	0	6	0	1	n/a	1_0.gif
112.001	1	3	2	6	0	4	n/a	3_2.gif
113.001	1	1	2	6	0	1	n/a	1_2.gif
114.001	1	3	2	6	0	3	n/a	3_2.gif
115.001	1	1	2	3	0.241	1	0	1_2.gif
116.001	1	3	2	1	0.089	3	0	3_2.gif
117.001	1	1	2	1	0.248	1	1	1_2.gif
118.001	1	3	2	6	0	3	n/a	3_2.gif
119.001	1	4	2	6	0	1	n/a	4_2.gif
120.001	1	1	2	6	0	3	n/a	1_2.gif
121.001	1	3	2	6	0	4	n/a	3_2.gif
122.002	1	1	2	4	0.221	1	0	1_2.gif
123.002	1	3	2	1	0.003	3	0	3_2.gif
124.002	1	1	2	6	0	1	n/a	1_2.gif
125.002	1	4	2	6	0	3	n/a	4_2.gif
126.002	1	1	2	6	0	1	n/a	1_2.gif
127.002	1	2	2	6	0	4	n/a	2_2.gif
128.002	1	3	0	6	0	3	n/a	3_0.gif
129.002	1	1	0	6	0	1	n/a	1_0.gif
130.002	1	4	0	3	0.003	4	0	4_0.gif
131.002	1	1	0	6	0	1	n/a	1_0.gif
132.002	1	2	0	6	0	2	n/a	2_0.gif
133.002	1	1	0	2	0.669	1	0	1_0.gif
134.002	1	4	0	2	0.003	4	0	4_0.gif
135.002	1	3	0	6	0	3	n/a	3_0.gif
136.002	1	4	0	6	0	4	n/a	4_0.gif
137.002	1	3	0	6	0	3	n/a	3_0.gif
138.002	1	4	0	6	0	4	n/a	4_0.gif
139.002	1	3	0	4	0.921	3	0	3_0.gif
140.002	1	2	0	4	0.003	2	0	2_0.gif
141.002	1	3	0	2	0.255	3	0	3_0.gif
142.002	1	1	0	3	0.653	1	0	1_0.gif
143.002	1	3	0	3	0.003	3	1	3_0.gif
144.002	1	4	2	1	0.004	1	1	4_2.gif
145.002	1	3	2	6	0	3	n/a	3_2.gif
146.002	1	1	2	4	0.415	4	1	1_2.gif
147.002	1	3	2	3	0.571	3	1	3_2.gif
148.002	1	2	2	3	0.004	1	0	2_2.gif
149.002	1	1	2	4	0.004	3	0	1_2.gif
150.002	1	4	2	6	0	2	n/a	4_2.gif
151.002	1	3	2	6	0	1	n/a	3_2.gif
152.002	1	1	2	6	0	4	n/a	1_2.gif
153.002	1	4	2	6	0	3	n/a	4_2.gif
154.002	1	3	2	6	0	1	n/a	3_2.gif
155.002	1	4	2	6	0	4	n/a	4_2.gif
156.002	1	1	2	4	0.73	3	0	1_2.gif
157.002	1	4	2	4	0.004	4	1	4_2.gif
158.002	1	1	2	3	0.088	1	0	1_2.gif
159.002	1	3	2	1	0.089	4	0	3_2.gif
160.003	1	1	0	6	0	1	n/a	1_0.gif
161.003	1	2	0	1	0.453	2	0	2_0.gif
162.003	1	4	0	3	0.773	4	0	4_0.gif
163.003	1	2	0	3	0.003	2	0	2_0.gif
164.003	1	1	0	1	0.134	1	1	1_0.gif
165.003	1	2	0	2	0.859	2	1	2_0.gif
166.003	1	4	0	2	0.003	4	0	4_0.gif
167.003	1	1	0	4	0.003	1	0	1_0.gif
168.003	1	4	0	1	0.003	4	0	4_0.gif
169.003	1	3	0	3	0.6	3	1	3_0.gif
170.003	1	1	0	3	0.003	1	0	1_0.gif
171.003	1	4	0	1	0.003	4	0	4_0.gif
172.003	1	2	0	2	0.712	2	1	2_0.gif
173.003	1	1	0	2	0.003	1	0	1_0.gif
174.003	1	2	0	1	0.003	2	0	2_0.gif
175.003	1	4	0	4	0.881	4	1	4_0.gif
176.003	1	3	2	4	0.003	2	0	3_2.gif
177.003	1	4	2	3	0.003	4	0	4_2.gif
178.003	1	1	2	3	0.762	3	1	1_2.gif
179.003	1	2	2	3	0.003	4	0	2_2.gif
180.003	1	3	2	4	0.018	1	0	3_2.gif
181.003	1	4	2	1	0.003	2	0	4_2.gif
182.003	1	3	2	6	0	3	n/a	3_2.gif
183.003	1	1	2	6	0	4	n/a	1_2.gif
184.003	1	2	2	6	0	3	n/a	2_2.gif
185.003	1	1	2	6	0	1	n/a	1_2.gif
186.003	1	3	2	1	0.399	2	0	3_2.gif
187.003	1	1	2	2	0.238	1	0	1_2.gif
188.003	1	4	2	1	0.203	3	0	4_2.gif
189.003	1	1	2	3	0.258	1	0	1_2.gif
190.003	1	4	2	6	0	4	n/a	4_2.gif
191.003	1	3	2	6	0	1	n/a	3_2.gif
192.003	1	4	0	1	0.294	4	0	4_0.gif
193.003	1	2	0	6	0	2	n/a	2_0.gif
194.003	1	4	0	4	0.175	4	1	4_0.gif
195.003	1	3	0	3	0.426	3	1	3_0.gif
196.003	1	4	0	4	0.503	4	1	4_0.gif
197.003	1	1	0	1	0.649	1	1	1_0.gif
198.003	1	3	0	1	0.003	3	0	3_0.gif
199.003	1	2	0	3	0.003	2	0	2_0.gif
200.003	1	4	0	4	0.472	4	1	4_0.gif
201.003	1	3	0	3	0.335	3	1	3_0.gif
202.003	1	2	0	2	0.312	2	1	2_0.gif
203.003	1	1	0	1	0.286	1	1	1_0.gif
204.003	1	4	0	4	0.344	4	1	4_0.gif
205.003	1	2	0	2	0.672	2	1	2_0.gif
206.003	1	1	0	2	0.003	1	0	1_0.gif
207.003	1	4	0	1	0.003	4	0	4_0.gif
208.003	1	2	2	6	0	1	n/a	2_2.gif
209.003	1	1	2	6	0	4	n/a	1_2.gif
210.003	1	2	2	6	0	2	n/a	2_2.gif
211.003	1	3	2	6	0	1	n/a	3_2.gif
212.003	1	1	2	1	0.09	2	0	1_2.gif
213.003	1	3	2	2	0.211	3	0	3_2.gif
214.003	1	4	2	3	0.404	1	0	4_2.gif
215.003	1	1	2	6	0	3	n/a	1_2.gif
216.004	1	3	2	6	0	4	n/a	3_2.gif
217.004	1	1	2	6	0	1	n/a	1_2.gif
218.004	1	4	2	3	0.572	3	1	4_2.gif
219.004	1	2	2	1	0.47	1	1	2_2.gif
220.004	1	1	2	3	0.461	4	0	1_2.gif
221.004	1	3	2	4	0.509	2	0	3_2.gif
222.004	1	2	2	6	0	1	n/a	2_2.gif
223.004	1	4	2	6	0	3	n/a	4_2.gif
224.004	1	3	0	3	0.803	3	1	3_0.gif
225.004	1	1	0	3	0.003	1	0	1_0.gif
226.004	1	4	0	1	0.657	4	0	4_0.gif
227.004	1	2	0	1	0.003	2	0	2_0.gif
228.004	1	4	0	2	0.055	4	0	4_0.gif
229.004	1	1	0	4	0.003	1	0	1_0.gif
230.004	1	4	0	4	0.629	4	1	4_0.gif
231.004	1	2	0	2	0.749	2	1	2_0.gif
232.004	1	4	0	2	0.003	4	0	4_0.gif
233.004	1	1	0	1	0.361	1	1	1_0.gif
234.004	1	3	0	3	0.292	3	1	3_0.gif
235.004	1	4	0	4	0.902	4	1	4_0.gif
236.004	1	2	0	4	0.003	2	0	2_0.gif
237.004	1	1	0	2	0.003	1	0	1_0.gif
238.004	1	2	0	6	0	2	n/a	2_0.gif
239.004	1	1	0	2	0.074	1	0	1_0.gif
240.004	1	2	2	1	0.003	2	0	2_2.gif
241.004	1	1	2	6	0	1	n/a	1_2.gif
242.004	1	2	2	6	0	2	n/a	2_2.gif
243.004	1	3	2	2	0.04	1	0	3_2.gif
244.004	1	4	2	1	0.003	2	0	4_2.gif
245.004	1	2	2	3	0.462	3	1	2_2.gif
246.004	1	3	2	4	0.502	4	1	3_2.gif
247.004	1	1	2	2	0.379	2	1	1_2.gif
248.004	1	4	2	3	0.119	3	1	4_2.gif
249.004	1	3	2	1	0.172	1	1	3_2.gif
250.004	1	1	2	4	0.003	4	1	1_2.gif
251.004	1	2	2	3	0.003	3	1	2_2.gif
252.004	1	3	2	1	0.003	1	1	3_2.gif
253.004	1	1	2	2	0.003	2	1	1_2.gif
254.004	1	2	2	3	0.003	3	1	2_2.gif
255.004	1	3	2	1	0.003	1	1	3_2.gif
