onset	duration	nback_display	trial_type	response	response_time	correct_response	correct	stim_file
0	1	2	0	2	0.862	2	1	2_0.gif
1	1	3	0	2	0.006	3	0	3_0.gif
2	1	2	0	2	0.679	2	1	2_0.gif
3	1	1	0	1	0.484	1	1	1_0.gif
4	1	3	0	3	0.42	3	1	3_0.gif
5	1	1	0	1	0.395	1	1	1_0.gif
6	1	4	0	4	0.51	4	1	4_0.gif
7	1	3	0	3	0.442	3	1	3_0.gif
8	1	1	0	1	0.334	1	1	1_0.gif
9	1	3	0	3	0.451	3	1	3_0.gif
10	1	4	0	4	0.641	4	1	4_0.gif
11	1	1	0	1	0.434	1	1	1_0.gif
12	1	4	0	4	0.525	4	1	4_0.gif
13	1	1	0	1	0.435	1	1	1_0.gif
14	1	4	0	4	0.445	4	1	4_0.gif
15	1	3	0	3	0.453	3	1	3_0.gif
16	1	1	2	6	0	4	n/a	1_2.gif
17	1	4	2	6	0	3	n/a	4_2.gif
18	1	2	2	6	0	1	n/a	2_2.gif
19	1	3	2	1	0.007	4	0	3_2.gif
20	1	1	2	2	0.502	2	1	1_2.gif
21	1	3	2	3	0.355	3	1	3_2.gif
22	1	4	2	1	0.029	1	1	4_2.gif
23	1	3	2	3	0.146	3	1	3_2.gif
24	1	4	2	6	0	4	n/a	4_2.gif
25	1	1	2	3	0.348	3	1	1_2.gif
26	1	3	2	4	0.295	4	1	3_2.gif
27	1	4	2	1	0.319	1	1	4_2.gif
28	1	1	2	3	0.143	3	1	1_2.gif
29	1	4	2	4	0.525	4	1	4_2.gif
30	1	3	2	1	0.292	1	1	3_2.gif
31	1	4	2	3	0.368	4	0	4_2.gif
32	1	1	0	1	0.604	1	1	1_0.gif
33	1	3	0	3	0.594	3	1	3_0.gif
34	1	4	0	4	0.485	4	1	4_0.gif
35	1	3	0	3	0.421	3	1	3_0.gif
36	1	2	0	2	0.529	2	1	2_0.gif
37	1	4	0	4	0.421	4	1	4_0.gif
38	1	3	0	3	0.416	3	1	3_0.gif
39	1	1	0	1	0.423	1	1	1_0.gif
40	1	3	0	3	0.405	3	1	3_0.gif
41	1	4	0	4	0.341	4	1	4_0.gif
42	1	1	0	1	0.243	1	1	1_0.gif
43	1	2	0	2	0.363	2	1	2_0.gif
44	1	4	0	4	0.361	4	1	4_0.gif
45	1	1	0	1	0.472	1	1	1_0.gif
46	1	4	0	4	0.446	4	1	4_0.gif
47	1	3	0	3	0.358	3	1	3_0.gif
48	1	2	2	6	0	4	n/a	2_2.gif
49	1	1	2	6	0	3	n/a	1_2.gif
50	1	2	2	2	0.654	2	1	2_2.gif
51	1	3	2	1	0.536	1	1	3_2.gif
52	1	4	2	6	0	2	n/a	4_2.gif
53	1	2	2	3	0.309	3	1	2_2.gif
54	1	3	2	4	0.33	4	1	3_2.gif
55	1	2	2	2	0.388	2	1	2_2.gif
56	1	1	2	6	0	3	n/a	1_2.gif
57	1	3	2	1	0.398	2	0	3_2.gif
58	1	4	2	3	0.651	1	0	4_2.gif
59	1	1	2	4	0.482	3	0	1_2.gif
60	1	2	2	1	0.425	4	0	2_2.gif
61	1	1	2	6	0	1	n/a	1_2.gif
62	1	2	2	1	0.99	2	0	2_2.gif
63	1	4	2	1	0.007	1	1	4_2.gif
64	1	2	0	2	0.873	2	1	2_0.gif
65	1	4	0	2	0.006	4	0	4_0.gif
66	1	3	0	3	0.56	3	1	3_0.gif
67	1	4	0	4	0.528	4	1	4_0.gif
68	1	1	0	1	0.48	1	1	1_0.gif
69	1	4	0	4	0.453	4	1	4_0.gif
70	1	2	0	2	0.353	2	1	2_0.gif
71	1	3	0	3	0.377	3	1	3_0.gif
72	1	1	0	1	0.263	1	1	1_0.gif
73	1	4	0	4	0.365	4	1	4_0.gif
74	1	3	0	3	0.371	3	1	3_0.gif
75	1	2	0	2	0.346	2	1	2_0.gif
76	1	4	0	4	0.379	4	1	4_0.gif
77	1	1	0	6	0	1	n/a	1_0.gif
78	1	4	0	4	0.357	4	1	4_0.gif
79	1	1	0	1	0.43	1	1	1_0.gif
80.001	1	3	2	6	0	4	n/a	3_2.gif
81.001	1	4	2	6	0	1	n/a	4_2.gif
82.001	1	2	2	3	0.51	3	1	2_2.gif
83.001	1	4	2	4	0.311	4	1	4_2.gif
84.001	1	2	2	2	0.064	2	1	2_2.gif
85.001	1	3	2	4	0.007	4	1	3_2.gif
86.001	1	1	2	3	0.652	2	0	1_2.gif
87.001	1	2	2	1	0.397	3	0	2_2.gif
88.001	1	1	2	2	0.319	1	0	1_2.gif
89.001	1	4	2	1	0.258	2	0	4_2.gif
90.001	1	3	2	4	0.165	1	0	3_2.gif
91.001	1	2	2	3	0.365	4	0	2_2.gif
92.001	1	1	2	2	0.308	3	0	1_2.gif
93.001	1	3	2	1	0.221	2	0	3_2.gif
94.001	1	1	2	3	0.352	1	0	1_2.gif
95.001	1	3	2	1	0.398	3	0	3_2.gif
96.001	1	1	0	1	0.772	1	1	1_0.gif
97.001	1	4	0	1	0.007	4	0	4_0.gif
98.001	1	3	0	3	0.531	3	1	3_0.gif
99.001	1	4	0	4	0.494	4	1	4_0.gif
100.001	1	2	0	2	0.623	2	1	2_0.gif
101.001	1	4	0	4	0.648	4	1	4_0.gif
102.001	1	1	0	1	0.386	1	1	1_0.gif
103.001	1	4	0	4	0.422	4	1	4_0.gif
104.001	1	1	0	1	0.33	1	1	1_0.gif
105.001	1	4	0	4	0.39	4	1	4_0.gif
106.001	1	1	0	1	0.384	1	1	1_0.gif
107.001	1	3	0	3	0.343	3	1	3_0.gif
108.001	1	1	0	1	0.357	1	1	1_0.gif
109.001	1	3	0	3	0.465	3	1	3_0.gif
110.001	1	4	0	4	0.494	4	1	4_0.gif
111.001	1	3	0	3	0.475	3	1	3_0.gif
112.001	1	1	2	1	0.43	4	0	1_2.gif
113.001	1	3	2	6	0	3	n/a	3_2.gif
114.001	1	1	2	1	0.322	1	1	1_2.gif
115.001	1	4	2	3	0.07	3	1	4_2.gif
116.001	1	1	2	1	0.007	1	1	1_2.gif
117.001	1	4	2	4	0.006	4	1	4_2.gif
118.001	1	3	2	1	0.2	1	1	3_2.gif
119.001	1	4	2	4	0.253	4	1	4_2.gif
120.001	1	1	2	3	0.041	3	1	1_2.gif
121.001	1	4	2	4	0.007	4	1	4_2.gif
122.001	1	3	2	4	0.468	1	0	3_2.gif
123.001	1	1	2	3	0.288	4	0	1_2.gif
124.001	1	4	2	1	0.007	3	0	4_2.gif
125.001	1	2	2	4	0.007	1	0	2_2.gif
126.001	1	3	2	3	0.582	4	0	3_2.gif
127.001	1	4	2	4	0.4	2	0	4_2.gif
128.001	1	1	0	1	0.761	1	1	1_0.gif
129.001	1	4	0	4	0.541	4	1	4_0.gif
130.001	1	2	0	2	0.462	2	1	2_0.gif
131.001	1	3	0	3	0.318	3	1	3_0.gif
132.001	1	4	0	4	0.528	4	1	4_0.gif
133.001	1	1	0	1	0.394	1	1	1_0.gif
134.001	1	3	0	3	0.396	3	1	3_0.gif
135.001	1	2	0	2	0.397	2	1	2_0.gif
136.001	1	4	0	4	0.277	4	1	4_0.gif
137.001	1	3	0	3	0.402	3	1	3_0.gif
138.001	1	1	0	1	0.318	1	1	1_0.gif
139.001	1	3	0	3	0.428	3	1	3_0.gif
140.001	1	2	0	2	0.423	2	1	2_0.gif
141.001	1	1	0	1	0.274	1	1	1_0.gif
142.001	1	3	0	3	0.38	3	1	3_0.gif
143.001	1	4	0	4	0.279	4	1	4_0.gif
144.002	1	1	2	6	0	3	n/a	1_2.gif
145.002	1	4	2	6	0	4	n/a	4_2.gif
146.002	1	2	2	1	0.604	1	1	2_2.gif
147.002	1	3	2	4	0.36	4	1	3_2.gif
148.002	1	1	2	2	0.194	2	1	1_2.gif
149.002	1	2	2	3	0.103	3	1	2_2.gif
150.002	1	3	2	1	0.006	1	1	3_2.gif
151.002	1	1	2	6	0	2	n/a	1_2.gif
152.002	1	2	2	1	0.218	3	0	2_2.gif
153.002	1	1	2	2	0.384	1	0	1_2.gif
154.002	1	3	2	1	0.214	2	0	3_2.gif
155.002	1	4	2	3	0.271	1	0	4_2.gif
156.002	1	1	2	4	0.472	3	0	1_2.gif
157.002	1	4	2	1	0.523	4	0	4_2.gif
158.002	1	1	2	6	0	1	n/a	1_2.gif
159.002	1	3	2	4	0.711	4	1	3_2.gif
160.002	1	1	0	1	0.331	1	1	1_0.gif
161.002	1	2	0	2	0.551	2	1	2_0.gif
162.002	1	1	0	1	0.461	1	1	1_0.gif
163.002	1	3	0	3	0.437	3	1	3_0.gif
164.002	1	4	0	4	0.33	4	1	4_0.gif
165.002	1	2	0	2	0.42	2	1	2_0.gif
166.002	1	4	0	4	0.468	4	1	4_0.gif
167.002	1	1	0	1	0.361	1	1	1_0.gif
168.002	1	3	0	3	0.426	3	1	3_0.gif
169.002	1	1	0	1	0.396	1	1	1_0.gif
170.002	1	3	0	3	0.382	3	1	3_0.gif
171.002	1	1	0	1	0.289	1	1	1_0.gif
172.002	1	2	0	2	0.464	2	1	2_0.gif
173.002	1	3	0	3	0.362	3	1	3_0.gif
174.002	1	4	0	4	0.374	4	1	4_0.gif
175.002	1	3	0	3	0.45	3	1	3_0.gif
176.002	1	1	2	1	0.407	4	0	1_2.gif
177.002	1	2	2	6	0	3	n/a	2_2.gif
178.002	1	1	2	1	0.539	1	1	1_2.gif
179.002	1	2	2	2	0.524	2	1	2_2.gif
180.002	1	4	2	1	0.194	1	1	4_2.gif
181.002	1	1	2	2	0.111	2	1	1_2.gif
182.002	1	3	2	4	0.33	4	1	3_2.gif
183.002	1	1	2	1	0.369	1	1	1_2.gif
184.002	1	2	2	3	0.532	3	1	2_2.gif
185.002	1	1	2	2	0.382	1	0	1_2.gif
186.002	1	2	2	1	0.126	2	0	2_2.gif
187.002	1	1	2	2	0.044	1	0	1_2.gif
188.002	1	3	2	1	0.007	2	0	3_2.gif
189.002	1	2	2	3	0.664	1	0	2_2.gif
190.002	1	3	2	6	0	3	n/a	3_2.gif
191.002	1	2	2	2	0.238	2	1	2_2.gif
192.002	1	1	0	3	0.014	1	0	1_0.gif
193.002	1	3	0	1	0.006	3	0	3_0.gif
194.002	1	1	0	3	0.006	1	0	1_0.gif
195.002	1	4	0	4	0.441	4	1	4_0.gif
196.002	1	3	0	3	0.396	3	1	3_0.gif
197.002	1	1	0	1	0.267	1	1	1_0.gif
198.002	1	3	0	3	0.35	3	1	3_0.gif
199.002	1	4	0	4	0.363	4	1	4_0.gif
200.002	1	1	0	1	0.262	1	1	1_0.gif
201.002	1	4	0	4	0.42	4	1	4_0.gif
202.002	1	1	0	1	0.272	1	1	1_0.gif
203.002	1	4	0	4	0.475	4	1	4_0.gif
204.002	1	3	0	3	0.567	3	1	3_0.gif
205.002	1	1	0	1	0.34	1	1	1_0.gif
206.002	1	4	0	4	0.376	4	1	4_0.gif
207.002	1	2	0	2	0.438	2	1	2_0.gif
208.002	1	3	2	6	0	4	n/a	3_2.gif
209.002	1	1	2	6	0	2	n/a	1_2.gif
210.002	1	3	2	3	0.13	3	1	3_2.gif
211.002	1	4	2	1	0.082	1	1	4_2.gif
212.002	1	3	2	3	0.062	3	1	3_2.gif
213.002	1	4	2	4	0.054	4	1	4_2.gif
214.002	1	1	2	3	0.018	3	1	1_2.gif
215.002	1	3	2	1	0.007	4	0	3_2.gif
216.002	1	4	2	3	0.181	1	0	4_2.gif
217.002	1	1	2	1	0.097	3	0	1_2.gif
218.002	1	4	2	4	0.433	4	1	4_2.gif
219.002	1	3	2	3	0.4	1	0	3_2.gif
220.002	1	4	2	4	0.758	4	1	4_2.gif
221.002	1	1	2	3	0.653	3	1	1_2.gif
222.002	1	3	2	1	0.649	4	0	3_2.gif
223.002	1	4	2	4	0.884	1	0	4_2.gif
224.003	1	3	0	4	0.006	3	0	3_0.gif
225.003	1	2	0	3	0.117	2	0	2_0.gif
226.003	1	4	0	2	0.005	4	0	4_0.gif
227.003	1	3	0	3	0.331	3	1	3_0.gif
228.003	1	1	0	1	0.473	1	1	1_0.gif
229.003	1	3	0	3	0.536	3	1	3_0.gif
230.003	1	4	0	4	0.48	4	1	4_0.gif
231.003	1	1	0	1	0.504	1	1	1_0.gif
232.003	1	2	0	6	0	2	n/a	2_0.gif
233.003	1	4	0	4	0.557	4	1	4_0.gif
234.003	1	1	0	1	0.518	1	1	1_0.gif
235.003	1	4	0	4	0.591	4	1	4_0.gif
236.003	1	3	0	3	0.406	3	1	3_0.gif
237.003	1	2	0	2	0.313	2	1	2_0.gif
238.003	1	1	0	1	0.29	1	1	1_0.gif
239.003	1	2	0	2	0.519	2	1	2_0.gif
240.003	1	3	2	6	0	1	n/a	3_2.gif
241.003	1	4	2	6	0	2	n/a	4_2.gif
242.003	1	2	2	3	0.672	3	1	2_2.gif
243.003	1	3	2	4	0.528	4	1	3_2.gif
244.003	1	2	2	2	0.315	2	1	2_2.gif
245.003	1	1	2	3	0.184	3	1	1_2.gif
246.003	1	3	2	2	0.007	2	1	3_2.gif
247.003	1	4	2	1	0.007	1	1	4_2.gif
248.003	1	1	2	3	0.87	3	1	1_2.gif
249.003	1	2	2	3	0.006	4	0	2_2.gif
250.003	1	1	2	2	0.394	1	0	1_2.gif
251.003	1	2	2	1	0.126	2	0	2_2.gif
252.003	1	4	2	6	0	1	n/a	4_2.gif
253.003	1	2	2	4	0.41	2	0	2_2.gif
254.003	1	4	2	4	0.729	4	1	4_2.gif
255.003	1	3	2	2	0.236	2	1	3_2.gif
