onset	duration	nback_display	trial_type	response	response_time	correct_response	correct	stim_file
0	1	4	0	4	0.639	4	1	4_0.gif
1	1	2	0	2	0.455	2	1	2_0.gif
2	1	1	0	1	0.314	1	1	1_0.gif
3	1	4	0	4	0.324	4	1	4_0.gif
4	1	3	0	3	0.335	3	1	3_0.gif
5	1	4	0	4	0.347	4	1	4_0.gif
6	1	1	0	1	0.33	1	1	1_0.gif
7	1	4	0	4	0.28	4	1	4_0.gif
8	1	2	0	2	0.363	2	1	2_0.gif
9	1	1	0	1	0.319	1	1	1_0.gif
10	1	3	0	3	0.384	3	1	3_0.gif
11	1	4	0	4	0.268	4	1	4_0.gif
12	1	2	0	2	0.267	2	1	2_0.gif
13	1	4	0	4	0.436	4	1	4_0.gif
14	1	3	0	3	0.395	3	1	3_0.gif
15	1	2	0	4	0.365	2	0	2_0.gif
16	1	4	2	6	0	3	n/a	4_2.gif
17	1	3	2	6	0	2	n/a	3_2.gif
18	1	1	2	4	0.292	4	1	1_2.gif
19	1	4	2	3	0.246	3	1	4_2.gif
20	1	2	2	1	0.225	1	1	2_2.gif
21	1	4	2	4	0.217	4	1	4_2.gif
22	1	2	2	2	0.244	2	1	2_2.gif
23	1	4	2	4	0.21	4	1	4_2.gif
24	1	3	2	2	0.237	2	1	3_2.gif
25	1	4	2	4	0.135	4	1	4_2.gif
26	1	2	2	3	0.11	3	1	2_2.gif
27	1	3	2	4	0.1	4	1	3_2.gif
28	1	2	2	2	0.061	2	1	2_2.gif
29	1	3	2	3	0.635	3	1	3_2.gif
30	1	4	2	4	0.426	2	0	4_2.gif
31	1	2	2	4	0.888	3	0	2_2.gif
32.001	1	3	0	4	0.008	3	0	3_0.gif
33.001	1	2	0	3	0.008	2	0	2_0.gif
34.001	1	4	0	4	0.603	4	1	4_0.gif
35.001	1	1	0	1	0.445	1	1	1_0.gif
36.001	1	3	0	3	0.43	3	1	3_0.gif
37.001	1	2	0	2	0.396	2	1	2_0.gif
38.001	1	3	0	3	0.339	3	1	3_0.gif
39.001	1	4	0	4	0.331	4	1	4_0.gif
40.001	1	1	0	1	0.287	1	1	1_0.gif
41.001	1	3	0	3	0.467	3	1	3_0.gif
42.001	1	2	0	2	0.362	2	1	2_0.gif
43.001	1	4	0	4	0.28	4	1	4_0.gif
44.001	1	3	0	3	0.274	3	1	3_0.gif
45.001	1	2	0	2	0.331	2	1	2_0.gif
46.001	1	4	0	4	0.328	4	1	4_0.gif
47.001	1	2	0	2	0.355	2	1	2_0.gif
48.001	1	4	2	6	0	4	n/a	4_2.gif
49.001	1	1	2	6	0	2	n/a	1_2.gif
50.001	1	2	2	6	0	4	n/a	2_2.gif
51.001	1	1	2	4	0.109	1	0	1_2.gif
52.001	1	2	2	1	0.055	2	0	2_2.gif
53.001	1	3	2	6	0	1	n/a	3_2.gif
54.001	1	1	2	3	0.546	2	0	1_2.gif
55.001	1	3	2	3	0.567	3	1	3_2.gif
56.001	1	1	2	3	0.58	1	0	1_2.gif
57.001	1	4	2	6	0	3	n/a	4_2.gif
58.001	1	2	2	1	0.351	1	1	2_2.gif
59.001	1	4	2	4	0.129	4	1	4_2.gif
60.001	1	1	2	2	0.184	2	1	1_2.gif
61.001	1	3	2	4	0.154	4	1	3_2.gif
62.001	1	2	2	1	0.122	1	1	2_2.gif
63.001	1	3	2	3	0.165	3	1	3_2.gif
64.002	1	2	0	2	0.287	2	1	2_0.gif
65.002	1	3	0	3	0.277	3	1	3_0.gif
66.002	1	4	0	4	0.262	4	1	4_0.gif
67.002	1	1	0	1	0.31	1	1	1_0.gif
68.002	1	3	0	3	0.284	3	1	3_0.gif
69.002	1	2	0	2	0.308	2	1	2_0.gif
70.002	1	3	0	3	0.271	3	1	3_0.gif
71.002	1	1	0	1	0.36	1	1	1_0.gif
72.002	1	4	0	4	0.268	4	1	4_0.gif
73.002	1	3	0	3	0.53	3	1	3_0.gif
74.002	1	4	0	4	0.353	4	1	4_0.gif
75.002	1	3	0	3	0.325	3	1	3_0.gif
76.002	1	2	0	2	0.484	2	1	2_0.gif
77.002	1	3	0	3	0.336	3	1	3_0.gif
78.002	1	1	0	1	0.455	1	1	1_0.gif
79.002	1	2	0	2	0.378	2	1	2_0.gif
80.003	1	1	2	6	0	1	n/a	1_2.gif
81.003	1	2	2	6	0	2	n/a	2_2.gif
82.003	1	4	2	1	0.247	1	1	4_2.gif
83.003	1	1	2	2	0.09	2	1	1_2.gif
84.003	1	4	2	4	0.147	4	1	4_2.gif
85.003	1	1	2	1	0.025	1	1	1_2.gif
86.003	1	2	2	4	0.01	4	1	2_2.gif
87.003	1	3	2	1	0.008	1	1	3_2.gif
88.003	1	4	2	2	0.008	2	1	4_2.gif
89.003	1	1	2	3	0.01	3	1	1_2.gif
90.003	1	4	2	1	0.973	4	0	4_2.gif
91.003	1	3	2	1	0.008	1	1	3_2.gif
92.003	1	2	2	4	0.008	4	1	2_2.gif
93.003	1	1	2	3	0.01	3	1	1_2.gif
94.003	1	2	2	1	0.803	2	0	2_2.gif
95.003	1	3	2	1	0.008	1	1	3_2.gif
96.004	1	4	0	2	0.008	4	0	4_0.gif
97.004	1	2	0	2	0.765	2	1	2_0.gif
98.004	1	4	0	4	0.414	4	1	4_0.gif
99.004	1	3	0	3	0.35	3	1	3_0.gif
100.004	1	4	0	4	0.324	4	1	4_0.gif
101.004	1	2	0	2	0.385	2	1	2_0.gif
102.004	1	4	0	4	0.385	4	1	4_0.gif
103.004	1	1	0	1	0.342	1	1	1_0.gif
104.004	1	3	0	3	0.462	3	1	3_0.gif
105.004	1	1	0	1	0.57	1	1	1_0.gif
106.004	1	2	0	2	0.489	2	1	2_0.gif
107.004	1	1	0	1	0.355	1	1	1_0.gif
108.004	1	2	0	2	0.34	2	1	2_0.gif
109.004	1	4	0	4	0.338	4	1	4_0.gif
110.004	1	2	0	4	0.302	2	0	2_0.gif
111.004	1	3	0	3	0.433	3	1	3_0.gif
112.005	1	4	2	6	0	2	n/a	4_2.gif
113.005	1	3	2	6	0	3	n/a	3_2.gif
114.005	1	4	2	4	0.146	4	1	4_2.gif
115.005	1	2	2	3	0.365	3	1	2_2.gif
116.005	1	3	2	4	0.18	4	1	3_2.gif
117.005	1	1	2	2	0.102	2	1	1_2.gif
118.005	1	4	2	3	0.242	3	1	4_2.gif
119.005	1	2	2	1	0.111	1	1	2_2.gif
120.005	1	4	2	4	0.008	4	1	4_2.gif
121.005	1	2	2	2	0.01	2	1	2_2.gif
122.005	1	4	2	4	0.009	4	1	4_2.gif
123.005	1	1	2	2	0.008	2	1	1_2.gif
124.005	1	4	2	4	0.011	4	1	4_2.gif
125.005	1	3	2	1	0.009	1	1	3_2.gif
126.005	1	2	2	4	0.008	4	1	2_2.gif
127.005	1	4	2	3	0.01	3	1	4_2.gif
128.006	1	3	0	3	0.83	3	1	3_0.gif
129.006	1	1	0	3	0.009	1	0	1_0.gif
130.006	1	2	0	2	0.639	2	1	2_0.gif
131.006	1	3	0	3	0.443	3	1	3_0.gif
132.006	1	4	0	4	0.394	4	1	4_0.gif
133.006	1	2	0	2	0.281	2	1	2_0.gif
134.006	1	1	0	1	0.365	1	1	1_0.gif
135.006	1	2	0	2	0.311	2	1	2_0.gif
136.006	1	3	0	3	0.356	3	1	3_0.gif
137.006	1	2	0	2	0.341	2	1	2_0.gif
138.006	1	4	0	4	0.297	4	1	4_0.gif
139.006	1	2	0	2	0.435	2	1	2_0.gif
140.006	1	4	0	4	0.706	4	1	4_0.gif
141.006	1	1	0	1	0.429	1	1	1_0.gif
142.006	1	2	0	2	0.399	2	1	2_0.gif
143.006	1	4	0	4	0.298	4	1	4_0.gif
144.007	1	3	2	3	0.393	2	0	3_2.gif
145.007	1	2	2	6	0	4	n/a	2_2.gif
146.007	1	3	2	3	0.296	3	1	3_2.gif
147.007	1	4	2	2	0.132	2	1	4_2.gif
148.007	1	3	2	3	0.117	3	1	3_2.gif
149.007	1	1	2	4	0.009	4	1	1_2.gif
150.007	1	2	2	3	0.009	3	1	2_2.gif
151.007	1	4	2	2	0.941	1	0	4_2.gif
152.007	1	3	2	2	0.008	2	1	3_2.gif
153.007	1	4	2	4	0.009	4	1	4_2.gif
154.007	1	1	2	3	0.01	3	1	1_2.gif
155.007	1	3	2	4	0.015	4	1	3_2.gif
156.007	1	1	2	1	0.008	1	1	1_2.gif
157.007	1	3	2	3	0.01	3	1	3_2.gif
158.007	1	4	2	1	0.008	1	1	4_2.gif
159.007	1	3	2	3	0.011	3	1	3_2.gif
160.011	1	2	0	2	0.859	2	1	2_0.gif
161.011	1	4	0	2	0.008	4	0	4_0.gif
162.011	1	3	0	3	0.337	3	1	3_0.gif
163.011	1	1	0	1	0.302	1	1	1_0.gif
164.011	1	4	0	4	0.327	4	1	4_0.gif
165.011	1	1	0	1	0.318	1	1	1_0.gif
166.011	1	4	0	4	0.369	4	1	4_0.gif
167.011	1	2	0	2	0.468	2	1	2_0.gif
168.011	1	3	0	3	0.429	3	1	3_0.gif
169.011	1	1	0	1	0.36	1	1	1_0.gif
170.011	1	3	0	3	0.399	3	1	3_0.gif
171.011	1	4	0	4	0.351	4	1	4_0.gif
172.011	1	2	0	2	0.361	2	1	2_0.gif
173.011	1	4	0	4	0.367	4	1	4_0.gif
174.011	1	2	0	2	0.34	2	1	2_0.gif
175.011	1	3	0	3	0.333	3	1	3_0.gif
176.012	1	4	2	6	0	2	n/a	4_2.gif
177.013	1	1	2	6	0	3	n/a	1_2.gif
178.013	1	4	2	4	0.248	4	1	4_2.gif
179.013	1	1	2	1	0.009	1	1	1_2.gif
180.013	1	2	2	1	0.721	4	0	2_2.gif
181.013	1	3	2	2	0.679	1	0	3_2.gif
182.013	1	1	2	3	0.58	2	0	1_2.gif
183.013	1	3	2	1	0.571	3	0	3_2.gif
184.013	1	2	2	3	0.558	1	0	2_2.gif
185.013	1	3	2	2	0.582	3	0	3_2.gif
186.013	1	4	2	3	0.561	2	0	4_2.gif
187.013	1	3	2	4	0.38	3	0	3_2.gif
188.013	1	1	2	3	0.35	4	0	1_2.gif
189.013	1	3	2	6	0	3	n/a	3_2.gif
190.013	1	2	2	1	0.554	1	1	2_2.gif
191.013	1	4	2	3	0.221	3	1	4_2.gif
192.014	1	2	0	2	0.009	2	1	2_0.gif
193.014	1	1	0	2	0.008	1	0	1_0.gif
194.014	1	4	0	4	0.315	4	1	4_0.gif
195.014	1	3	0	3	0.321	3	1	3_0.gif
196.014	1	4	0	4	0.328	4	1	4_0.gif
197.014	1	1	0	1	0.325	1	1	1_0.gif
198.014	1	4	0	4	0.343	4	1	4_0.gif
199.014	1	2	0	2	0.34	2	1	2_0.gif
200.014	1	1	0	1	0.37	1	1	1_0.gif
201.014	1	3	0	3	0.374	3	1	3_0.gif
202.014	1	4	0	4	0.366	4	1	4_0.gif
203.014	1	2	0	2	0.387	2	1	2_0.gif
204.014	1	4	0	4	0.346	4	1	4_0.gif
205.014	1	3	0	3	0.36	3	1	3_0.gif
206.014	1	2	0	2	0.516	2	1	2_0.gif
207.014	1	4	0	4	0.459	4	1	4_0.gif
208.015	1	3	2	6	0	2	n/a	3_2.gif
209.015	1	1	2	6	0	4	n/a	1_2.gif
210.015	1	4	2	3	0.506	3	1	4_2.gif
211.015	1	2	2	1	0.223	1	1	2_2.gif
212.015	1	4	2	4	0.096	4	1	4_2.gif
213.015	1	2	2	2	0.008	2	1	2_2.gif
214.015	1	4	2	4	0.008	4	1	4_2.gif
215.015	1	3	2	4	0.843	2	0	3_2.gif
216.015	1	4	2	4	0.008	4	1	4_2.gif
217.015	1	2	2	6	0	3	n/a	2_2.gif
218.015	1	3	2	6	0	4	n/a	3_2.gif
219.015	1	2	2	6	0	2	n/a	2_2.gif
220.015	1	3	2	3	0.107	3	1	3_2.gif
221.015	1	4	2	2	0.008	2	1	4_2.gif
222.015	1	2	2	4	0.052	3	0	2_2.gif
223.015	1	3	2	4	0.54	4	1	3_2.gif
224.015	1	2	0	3	0.02	2	0	2_0.gif
225.015	1	4	0	4	0.444	4	1	4_0.gif
226.015	1	1	0	1	0.358	1	1	1_0.gif
227.015	1	3	0	3	0.36	3	1	3_0.gif
228.015	1	2	0	2	0.484	2	1	2_0.gif
229.015	1	3	0	3	0.324	3	1	3_0.gif
230.015	1	4	0	4	0.277	4	1	4_0.gif
231.015	1	1	0	1	0.558	1	1	1_0.gif
232.015	1	3	0	3	0.398	3	1	3_0.gif
233.015	1	2	0	2	0.485	2	1	2_0.gif
234.015	1	4	0	4	0.386	4	1	4_0.gif
235.015	1	3	0	3	0.371	3	1	3_0.gif
236.015	1	2	0	2	0.382	2	1	2_0.gif
237.015	1	4	0	4	0.303	4	1	4_0.gif
238.015	1	2	0	2	0.438	2	1	2_0.gif
239.015	1	4	0	4	0.33	4	1	4_0.gif
240.016	1	1	2	6	0	2	n/a	1_2.gif
241.016	1	2	2	6	0	4	n/a	2_2.gif
242.016	1	1	2	1	0.541	1	1	1_2.gif
243.016	1	2	2	2	0.263	2	1	2_2.gif
244.016	1	3	2	1	0.185	1	1	3_2.gif
245.016	1	1	2	2	0.016	2	1	1_2.gif
246.016	1	3	2	3	0.009	3	1	3_2.gif
247.016	1	1	2	3	0.766	1	0	1_2.gif
248.016	1	4	2	1	0.71	3	0	4_2.gif
249.016	1	2	2	4	0.681	1	0	2_2.gif
250.016	1	4	2	2	0.689	4	0	4_2.gif
251.016	1	1	2	4	0.685	2	0	1_2.gif
252.016	1	3	2	6	0	4	n/a	3_2.gif
253.016	1	2	2	1	0.156	1	1	2_2.gif
254.016	1	3	2	3	0.008	3	1	3_2.gif
255.016	1	2	2	2	0.008	2	1	2_2.gif
