onset	duration	nback_display	trial_type	response	response_time	correct_response	correct	stim_file
0	1	2	0	2	0.98	2	1	2_0.gif
1	1	3	0	2	0.012	3	0	3_0.gif
2	1	1	0	1	0.607	1	1	1_0.gif
3	1	3	0	3	0.478	3	1	3_0.gif
4	1	2	0	2	0.441	2	1	2_0.gif
5	1	4	0	4	0.513	4	1	4_0.gif
6	1	2	0	2	0.466	2	1	2_0.gif
7	1	4	0	4	0.453	4	1	4_0.gif
8	1	1	0	1	0.45	1	1	1_0.gif
9	1	2	0	2	0.397	2	1	2_0.gif
10	1	4	0	4	0.426	4	1	4_0.gif
11	1	1	0	1	0.399	1	1	1_0.gif
12	1	3	0	3	0.398	3	1	3_0.gif
13	1	2	0	2	0.412	2	1	2_0.gif
14	1	4	0	4	0.459	4	1	4_0.gif
15	1	3	0	3	0.446	3	1	3_0.gif
16	1	2	2	6	0	4	n/a	2_2.gif
17	1	4	2	6	0	3	n/a	4_2.gif
18	1	2	2	2	0.248	2	1	2_2.gif
19	1	4	2	4	0.202	4	1	4_2.gif
20	1	1	2	2	0.15	2	1	1_2.gif
21	1	2	2	4	0.158	4	1	2_2.gif
22	1	3	2	1	0.119	1	1	3_2.gif
23	1	1	2	2	0.085	2	1	1_2.gif
24	1	4	2	3	0.064	3	1	4_2.gif
25	1	3	2	4	0.014	1	0	3_2.gif
26	1	4	2	3	0.014	4	0	4_2.gif
27	1	2	2	2	0.541	3	0	2_2.gif
28	1	3	2	6	0	4	n/a	3_2.gif
29	1	1	2	2	0.472	2	1	1_2.gif
30	1	4	2	3	0.286	3	1	4_2.gif
31	1	2	2	4	0.062	1	0	2_2.gif
32.001	1	3	0	3	0.648	3	1	3_0.gif
33.001	1	4	0	4	0.437	4	1	4_0.gif
34.001	1	2	0	2	0.361	2	1	2_0.gif
35.001	1	4	0	4	0.421	4	1	4_0.gif
36.001	1	1	0	1	0.429	1	1	1_0.gif
37.001	1	4	0	4	0.442	4	1	4_0.gif
38.001	1	3	0	3	0.47	3	1	3_0.gif
39.001	1	2	0	2	0.462	2	1	2_0.gif
40.001	1	4	0	4	0.497	4	1	4_0.gif
41.001	1	1	0	1	0.496	1	1	1_0.gif
42.001	1	2	0	2	0.37	2	1	2_0.gif
43.001	1	4	0	4	0.366	4	1	4_0.gif
44.001	1	2	0	2	0.436	2	1	2_0.gif
45.001	1	1	0	1	0.488	1	1	1_0.gif
46.001	1	4	0	4	0.393	4	1	4_0.gif
47.001	1	2	0	2	0.419	2	1	2_0.gif
48.001	1	3	2	6	0	4	n/a	3_2.gif
49.001	1	2	2	6	0	2	n/a	2_2.gif
50.001	1	1	2	3	0.32	3	1	1_2.gif
51.001	1	3	2	2	0.255	2	1	3_2.gif
52.001	1	1	2	1	0.214	1	1	1_2.gif
53.001	1	3	2	3	0.193	3	1	3_2.gif
54.001	1	1	2	1	0.132	1	1	1_2.gif
55.001	1	3	2	3	0.089	3	1	3_2.gif
56.001	1	2	2	1	0.014	1	1	2_2.gif
57.001	1	3	2	2	0.173	3	0	3_2.gif
58.001	1	2	2	3	0.164	2	0	2_2.gif
59.001	1	3	2	2	0.171	3	0	3_2.gif
60.002	1	2	2	3	0.051	2	0	2_2.gif
61.002	1	4	2	2	0.216	3	0	4_2.gif
62.002	1	3	2	4	0.33	2	0	3_2.gif
63.002	1	2	2	3	0.292	4	0	2_2.gif
64.002	1	4	0	4	0.607	4	1	4_0.gif
65.002	1	1	0	1	0.494	1	1	1_0.gif
66.002	1	2	0	2	0.412	2	1	2_0.gif
67.002	1	3	0	3	0.395	3	1	3_0.gif
68.002	1	1	0	1	0.445	1	1	1_0.gif
69.002	1	4	0	4	0.479	4	1	4_0.gif
70.002	1	1	0	1	0.421	1	1	1_0.gif
71.002	1	3	0	3	0.476	3	1	3_0.gif
72.002	1	2	0	2	0.411	2	1	2_0.gif
73.002	1	4	0	4	0.454	4	1	4_0.gif
74.002	1	1	0	1	0.463	1	1	1_0.gif
75.002	1	3	0	3	0.405	3	1	3_0.gif
76.002	1	1	0	1	0.461	1	1	1_0.gif
77.002	1	3	0	3	0.45	3	1	3_0.gif
78.002	1	1	0	1	0.465	1	1	1_0.gif
79.002	1	3	0	3	0.435	3	1	3_0.gif
80.002	1	4	2	6	0	1	n/a	4_2.gif
81.002	1	1	2	6	0	3	n/a	1_2.gif
82.003	1	4	2	4	0.265	4	1	4_2.gif
83.003	1	2	2	1	0.325	1	1	2_2.gif
84.003	1	3	2	4	0.318	4	1	3_2.gif
85.003	1	4	2	2	0.37	2	1	4_2.gif
86.003	1	3	2	3	0.345	3	1	3_2.gif
87.003	1	2	2	4	0.349	4	1	2_2.gif
88.003	1	4	2	3	0.288	3	1	4_2.gif
89.003	1	2	2	2	0.255	2	1	2_2.gif
90.003	1	4	2	4	0.265	4	1	4_2.gif
91.003	1	1	2	2	0.422	2	1	1_2.gif
92.003	1	3	2	4	0.334	4	1	3_2.gif
93.003	1	2	2	1	0.272	1	1	2_2.gif
94.003	1	1	2	3	0.319	3	1	1_2.gif
95.003	1	3	2	2	0.269	2	1	3_2.gif
96.003	1	4	0	1	0.319	4	0	4_0.gif
97.003	1	1	0	4	0.197	1	0	1_0.gif
98.003	1	3	0	3	0.437	3	1	3_0.gif
99.003	1	4	0	4	0.458	4	1	4_0.gif
100.003	1	1	0	1	0.358	1	1	1_0.gif
101.003	1	4	0	4	0.373	4	1	4_0.gif
102.003	1	2	0	2	0.439	2	1	2_0.gif
103.003	1	4	0	4	0.444	4	1	4_0.gif
104.003	1	1	0	1	0.407	1	1	1_0.gif
105.003	1	2	0	2	0.479	2	1	2_0.gif
106.003	1	4	0	4	0.526	4	1	4_0.gif
107.003	1	2	0	2	0.456	2	1	2_0.gif
108.003	1	4	0	4	0.473	4	1	4_0.gif
109.003	1	2	0	2	0.444	2	1	2_0.gif
110.003	1	3	0	3	0.564	3	1	3_0.gif
111.003	1	1	0	1	0.477	1	1	1_0.gif
112.004	1	3	2	6	0	3	n/a	3_2.gif
113.004	1	4	2	3	0.926	1	0	4_2.gif
114.004	1	2	2	3	0.013	3	1	2_2.gif
115.004	1	4	2	4	0.014	4	1	4_2.gif
116.004	1	2	2	2	0.013	2	1	2_2.gif
117.004	1	4	2	4	0.013	4	1	4_2.gif
118.004	1	1	2	2	0.014	2	1	1_2.gif
119.004	1	2	2	4	0.013	4	1	2_2.gif
120.004	1	1	2	1	0.013	1	1	1_2.gif
121.004	1	2	2	2	0.015	2	1	2_2.gif
122.004	1	3	2	3	0.943	1	0	3_2.gif
123.004	1	1	2	3	0.013	2	0	1_2.gif
124.004	1	4	2	6	0	3	n/a	4_2.gif
125.004	1	2	2	1	0.633	1	1	2_2.gif
126.004	1	1	2	4	0.372	4	1	1_2.gif
127.004	1	2	2	2	0.28	2	1	2_2.gif
128.004	1	4	0	1	0.337	4	0	4_0.gif
129.004	1	1	0	4	0.085	1	0	1_0.gif
130.004	1	3	0	3	0.451	3	1	3_0.gif
131.004	1	4	0	4	0.448	4	1	4_0.gif
132.004	1	1	0	1	0.397	1	1	1_0.gif
133.004	1	4	0	4	0.356	4	1	4_0.gif
134.004	1	1	0	1	0.372	1	1	1_0.gif
135.004	1	4	0	4	0.338	4	1	4_0.gif
136.004	1	3	0	3	0.491	3	1	3_0.gif
137.004	1	2	0	2	0.426	2	1	2_0.gif
138.004	1	4	0	4	0.371	4	1	4_0.gif
139.004	1	2	0	2	0.337	2	1	2_0.gif
140.004	1	1	0	1	0.491	1	1	1_0.gif
141.004	1	4	0	4	0.431	4	1	4_0.gif
142.004	1	1	0	1	0.39	1	1	1_0.gif
143.004	1	3	0	3	0.413	3	1	3_0.gif
144.005	1	1	2	6	0	1	n/a	1_2.gif
145.005	1	2	2	6	0	3	n/a	2_2.gif
146.005	1	1	2	1	0.467	1	1	1_2.gif
147.005	1	4	2	2	0.263	2	1	4_2.gif
148.005	1	3	2	1	0.097	1	1	3_2.gif
149.005	1	4	2	4	0.014	4	1	4_2.gif
150.005	1	2	2	3	0.013	3	1	2_2.gif
151.005	1	4	2	2	0.334	4	0	4_2.gif
152.005	1	1	2	4	0.299	2	0	1_2.gif
153.005	1	3	2	1	0.252	4	0	3_2.gif
154.005	1	1	2	3	0.285	1	0	1_2.gif
155.005	1	3	2	1	0.284	3	0	3_2.gif
156.005	1	1	2	3	0.303	1	0	1_2.gif
157.005	1	2	2	1	0.463	3	0	2_2.gif
158.005	1	4	2	2	0.468	1	0	4_2.gif
159.005	1	1	2	4	0.478	2	0	1_2.gif
160.005	1	2	0	2	0.752	2	1	2_0.gif
161.005	1	4	0	2	0.014	4	0	4_0.gif
162.005	1	3	0	3	0.494	3	1	3_0.gif
163.005	1	4	0	4	0.444	4	1	4_0.gif
164.005	1	1	0	1	0.387	1	1	1_0.gif
165.005	1	2	0	2	0.437	2	1	2_0.gif
166.005	1	3	0	3	0.433	3	1	3_0.gif
167.005	1	2	0	2	0.392	2	1	2_0.gif
168.005	1	4	0	4	0.416	4	1	4_0.gif
169.005	1	2	0	2	0.432	2	1	2_0.gif
170.005	1	3	0	3	0.378	3	1	3_0.gif
171.005	1	1	0	1	0.421	1	1	1_0.gif
172.005	1	4	0	4	0.406	4	1	4_0.gif
173.005	1	2	0	2	0.433	2	1	2_0.gif
174.005	1	1	0	1	0.414	1	1	1_0.gif
175.005	1	4	0	4	0.466	4	1	4_0.gif
176.006	1	1	2	6	0	1	n/a	1_2.gif
177.006	1	3	2	6	0	4	n/a	3_2.gif
178.006	1	1	2	1	0.357	1	1	1_2.gif
179.006	1	4	2	3	0.281	3	1	4_2.gif
180.006	1	1	2	1	0.218	1	1	1_2.gif
181.006	1	2	2	4	0.237	4	1	2_2.gif
182.006	1	1	2	2	0.229	1	0	1_2.gif
183.006	1	3	2	1	0.24	2	0	3_2.gif
184.006	1	1	2	3	0.276	1	0	1_2.gif
185.006	1	4	2	1	0.336	3	0	4_2.gif
186.006	1	2	2	4	0.331	1	0	2_2.gif
187.006	1	3	2	2	0.304	4	0	3_2.gif
188.006	1	1	2	3	0.305	2	0	1_2.gif
189.006	1	3	2	1	0.272	3	0	3_2.gif
190.006	1	2	2	3	0.297	1	0	2_2.gif
191.006	1	4	2	2	0.308	3	0	4_2.gif
192.006	1	2	0	4	0.312	2	0	2_0.gif
193.006	1	4	0	2	0.014	4	0	4_0.gif
194.006	1	1	0	1	0.455	1	1	1_0.gif
195.006	1	2	0	2	0.441	2	1	2_0.gif
196.006	1	4	0	4	0.461	4	1	4_0.gif
197.006	1	1	0	1	0.387	1	1	1_0.gif
198.006	1	3	0	3	0.42	3	1	3_0.gif
199.006	1	2	0	2	0.45	2	1	2_0.gif
200.006	1	4	0	4	0.482	4	1	4_0.gif
201.006	1	3	0	3	0.472	3	1	3_0.gif
202.006	1	2	0	2	0.462	2	1	2_0.gif
203.006	1	4	0	4	0.474	4	1	4_0.gif
204.006	1	2	0	2	0.388	2	1	2_0.gif
205.006	1	4	0	4	0.393	4	1	4_0.gif
206.006	1	1	0	1	0.404	1	1	1_0.gif
207.006	1	2	0	2	0.367	2	1	2_0.gif
208.007	1	3	2	6	0	1	n/a	3_2.gif
209.007	1	1	2	6	0	2	n/a	1_2.gif
210.007	1	4	2	3	0.339	3	1	4_2.gif
211.007	1	3	2	1	0.257	1	1	3_2.gif
212.007	1	4	2	4	0.242	4	1	4_2.gif
213.007	1	2	2	3	0.294	3	1	2_2.gif
214.007	1	3	2	4	0.228	4	1	3_2.gif
215.007	1	1	2	2	0.199	2	1	1_2.gif
216.007	1	4	2	3	0.234	3	1	4_2.gif
217.007	1	2	2	1	0.199	1	1	2_2.gif
218.007	1	3	2	4	0.205	4	1	3_2.gif
219.007	1	4	2	2	0.197	2	1	4_2.gif
220.007	1	2	2	3	0.227	3	1	2_2.gif
221.007	1	4	2	4	0.215	4	1	4_2.gif
222.007	1	1	2	2	0.223	2	1	1_2.gif
223.007	1	4	2	4	0.18	4	1	4_2.gif
224.008	1	3	0	1	0.148	3	0	3_0.gif
225.008	1	2	0	3	0.013	2	0	2_0.gif
226.008	1	4	0	4	0.372	4	1	4_0.gif
227.008	1	1	0	1	0.328	1	1	1_0.gif
228.008	1	2	0	2	0.39	2	1	2_0.gif
229.008	1	4	0	4	0.377	4	1	4_0.gif
230.008	1	2	0	2	0.394	2	1	2_0.gif
231.008	1	1	0	1	0.345	1	1	1_0.gif
232.008	1	4	0	4	0.372	4	1	4_0.gif
233.008	1	2	0	2	0.276	2	1	2_0.gif
234.008	1	3	0	3	0.251	3	1	3_0.gif
235.008	1	2	0	2	0.333	2	1	2_0.gif
236.008	1	1	0	1	0.514	1	1	1_0.gif
237.008	1	3	0	3	0.489	3	1	3_0.gif
238.008	1	1	0	1	0.396	1	1	1_0.gif
239.008	1	3	0	3	0.388	3	1	3_0.gif
240.008	1	1	2	1	0.523	1	1	1_2.gif
241.008	1	3	2	6	0	3	n/a	3_2.gif
242.008	1	2	2	1	0.486	1	1	2_2.gif
243.008	1	3	2	3	0.332	3	1	3_2.gif
244.008	1	2	2	2	0.256	2	1	2_2.gif
245.008	1	3	2	3	0.269	3	1	3_2.gif
246.008	1	2	2	2	0.302	2	1	2_2.gif
247.008	1	4	2	3	0.419	3	1	4_2.gif
248.008	1	3	2	2	0.242	2	1	3_2.gif
249.008	1	2	2	4	0.204	4	1	2_2.gif
250.008	1	4	2	3	0.188	3	1	4_2.gif
251.008	1	1	2	2	0.193	2	1	1_2.gif
252.008	1	2	2	4	0.221	4	1	2_2.gif
253.008	1	3	2	1	0.21	1	1	3_2.gif
254.01	1	1	2	2	0.296	2	1	1_2.gif
255.01	1	4	2	3	0.215	3	1	4_2.gif
