onset	duration	nback_display	trial_type	response	response_time	correct_response	correct	stim_file
0	1	3	0	3	0.879	3	1	3_0.gif
1	1	2	0	3	0.012	2	0	2_0.gif
2	1	3	0	3	0.518	3	1	3_0.gif
3	1	2	0	2	0.41	2	1	2_0.gif
4	1	3	0	3	0.402	3	1	3_0.gif
5	1	4	0	4	0.516	4	1	4_0.gif
6	1	3	0	3	0.402	3	1	3_0.gif
7	1	1	0	1	0.387	1	1	1_0.gif
8	1	4	0	4	0.514	4	1	4_0.gif
9	1	3	0	3	0.387	3	1	3_0.gif
10	1	4	0	4	0.601	4	1	4_0.gif
11	1	1	0	1	0.431	1	1	1_0.gif
12	1	2	0	2	0.394	2	1	2_0.gif
13	1	1	0	1	0.503	1	1	1_0.gif
14	1	2	0	2	0.434	2	1	2_0.gif
15	1	1	0	1	0.322	1	1	1_0.gif
16.001	1	2	2	6	0	2	n/a	2_2.gif
17.001	1	4	2	2	0.982	1	0	4_2.gif
18.001	1	3	2	2	0.008	2	1	3_2.gif
19.001	1	2	2	4	0.008	4	1	2_2.gif
20.001	1	4	2	3	0.008	3	1	4_2.gif
21.001	1	3	2	6	0	2	n/a	3_2.gif
22.001	1	1	2	4	0.558	4	1	1_2.gif
23.001	1	3	2	3	0.421	3	1	3_2.gif
24.001	1	4	2	1	0.27	1	1	4_2.gif
25.001	1	1	2	3	0.274	3	1	1_2.gif
26.001	1	3	2	4	0.28	4	1	3_2.gif
27.001	1	2	2	1	0.222	1	1	2_2.gif
28.001	1	3	2	3	0.241	3	1	3_2.gif
29.001	1	1	2	2	0.246	2	1	1_2.gif
30.001	1	3	2	3	0.294	3	1	3_2.gif
31.001	1	2	2	1	0.297	1	1	2_2.gif
32.002	1	3	0	3	0.226	3	1	3_0.gif
33.002	1	1	0	1	0.459	1	1	1_0.gif
34.002	1	3	0	3	0.376	3	1	3_0.gif
35.002	1	4	0	4	0.497	4	1	4_0.gif
36.002	1	2	0	2	0.389	2	1	2_0.gif
37.002	1	1	0	1	0.34	1	1	1_0.gif
38.002	1	4	0	4	0.411	4	1	4_0.gif
39.002	1	3	0	3	0.331	3	1	3_0.gif
40.002	1	4	0	4	0.389	4	1	4_0.gif
41.002	1	2	0	2	0.376	2	1	2_0.gif
42.002	1	3	0	3	0.372	3	1	3_0.gif
43.002	1	1	0	1	0.312	1	1	1_0.gif
44.002	1	2	0	2	0.86	2	1	2_0.gif
45.002	1	4	0	2	0.008	4	0	4_0.gif
46.002	1	1	0	1	0.471	1	1	1_0.gif
47.002	1	3	0	3	0.384	3	1	3_0.gif
48.002	1	1	2	6	0	1	n/a	1_2.gif
49.002	1	2	2	6	0	3	n/a	2_2.gif
50.002	1	4	2	1	0.283	1	1	4_2.gif
51.002	1	3	2	2	0.212	2	1	3_2.gif
52.002	1	1	2	4	0.264	4	1	1_2.gif
53.002	1	3	2	3	0.288	3	1	3_2.gif
54.002	1	4	2	1	0.268	1	1	4_2.gif
55.002	1	1	2	3	0.263	3	1	1_2.gif
56.002	1	3	2	4	0.284	4	1	3_2.gif
57.002	1	4	2	1	0.288	1	1	4_2.gif
58.002	1	3	2	3	0.245	3	1	3_2.gif
59.002	1	2	2	4	0.222	4	1	2_2.gif
60.002	1	4	2	3	0.202	3	1	4_2.gif
61.002	1	2	2	2	0.21	2	1	2_2.gif
62.002	1	1	2	4	0.207	4	1	1_2.gif
63.002	1	4	2	2	0.186	2	1	4_2.gif
64.003	1	2	0	1	0.181	2	0	2_0.gif
65.003	1	4	0	4	0.628	4	1	4_0.gif
66.003	1	2	0	2	0.491	2	1	2_0.gif
67.003	1	3	0	3	0.373	3	1	3_0.gif
68.003	1	1	0	1	0.337	1	1	1_0.gif
69.003	1	3	0	3	0.417	3	1	3_0.gif
70.003	1	4	0	4	0.391	4	1	4_0.gif
71.003	1	3	0	3	0.518	3	1	3_0.gif
72.003	1	1	0	1	0.415	1	1	1_0.gif
73.003	1	4	0	4	0.432	4	1	4_0.gif
74.003	1	2	0	2	0.638	2	1	2_0.gif
75.003	1	4	0	4	0.427	4	1	4_0.gif
76.003	1	2	0	2	0.409	2	1	2_0.gif
77.003	1	1	0	1	0.402	1	1	1_0.gif
78.003	1	2	0	2	0.446	2	1	2_0.gif
79.003	1	3	0	3	0.308	3	1	3_0.gif
80.004	1	4	2	4	0.96	2	0	4_2.gif
81.004	1	2	2	4	0.008	3	0	2_2.gif
82.004	1	1	2	4	0.395	4	1	1_2.gif
83.004	1	2	2	2	0.253	2	1	2_2.gif
84.004	1	3	2	1	0.273	1	1	3_2.gif
85.004	1	1	2	2	0.259	2	1	1_2.gif
86.004	1	4	2	3	0.281	3	1	4_2.gif
87.004	1	1	2	1	0.262	1	1	1_2.gif
88.004	1	2	2	4	0.427	4	1	2_2.gif
89.004	1	4	2	1	0.299	1	1	4_2.gif
90.004	1	1	2	2	0.229	2	1	1_2.gif
91.004	1	4	2	4	0.225	4	1	4_2.gif
92.004	1	1	2	1	0.235	1	1	1_2.gif
93.004	1	3	2	4	0.243	4	1	3_2.gif
94.004	1	2	2	1	0.233	1	1	2_2.gif
95.004	1	3	2	3	0.238	3	1	3_2.gif
96.004	1	4	0	2	0.302	4	0	4_0.gif
97.004	1	1	0	4	0.008	1	0	1_0.gif
98.004	1	3	0	3	0.461	3	1	3_0.gif
99.004	1	2	0	2	0.354	2	1	2_0.gif
100.004	1	3	0	3	0.406	3	1	3_0.gif
101.004	1	1	0	1	0.32	1	1	1_0.gif
102.004	1	4	0	4	0.41	4	1	4_0.gif
103.004	1	1	0	1	0.383	1	1	1_0.gif
104.004	1	4	0	4	0.451	4	1	4_0.gif
105.005	1	1	0	1	0.4	1	1	1_0.gif
106.005	1	2	0	2	0.417	2	1	2_0.gif
107.005	1	1	0	1	0.449	1	1	1_0.gif
108.017	1	4	0	4	0.492	4	1	4_0.gif
109.017	1	1	0	1	0.307	1	1	1_0.gif
110.017	1	3	0	3	0.398	3	1	3_0.gif
111.017	1	4	0	4	0.458	4	1	4_0.gif
112.018	1	3	2	3	0.891	3	1	3_2.gif
113.018	1	1	2	3	0.008	4	0	1_2.gif
114.018	1	2	2	3	0.287	3	1	2_2.gif
115.018	1	1	2	1	0.25	1	1	1_2.gif
116.018	1	3	2	2	0.309	2	1	3_2.gif
117.018	1	4	2	1	0.273	1	1	4_2.gif
118.018	1	2	2	3	0.318	3	1	2_2.gif
119.018	1	4	2	4	0.279	4	1	4_2.gif
120.018	1	1	2	2	0.229	2	1	1_2.gif
121.018	1	4	2	4	0.336	4	1	4_2.gif
122.018	1	2	2	1	0.296	1	1	2_2.gif
123.018	1	1	2	2	0.287	4	0	1_2.gif
124.018	1	2	2	1	0.288	2	0	2_2.gif
125.018	1	1	2	1	0.417	1	1	1_2.gif
126.018	1	2	2	2	0.689	2	1	2_2.gif
127.018	1	3	2	6	0	1	n/a	3_2.gif
128.019	1	4	0	4	0.769	4	1	4_0.gif
129.019	1	1	0	4	0.008	1	0	1_0.gif
130.019	1	2	0	2	0.674	2	1	2_0.gif
131.019	1	1	0	1	0.415	1	1	1_0.gif
132.019	1	4	0	4	0.451	4	1	4_0.gif
133.019	1	3	0	3	0.343	3	1	3_0.gif
134.019	1	4	0	4	0.472	4	1	4_0.gif
135.019	1	2	0	2	0.459	2	1	2_0.gif
136.019	1	3	0	3	0.37	3	1	3_0.gif
137.019	1	4	0	4	0.47	4	1	4_0.gif
138.019	1	3	0	3	0.355	3	1	3_0.gif
139.019	1	1	0	1	0.368	1	1	1_0.gif
140.019	1	4	0	4	0.461	4	1	4_0.gif
141.019	1	1	0	1	0.457	1	1	1_0.gif
142.019	1	4	0	4	0.418	4	1	4_0.gif
143.019	1	1	0	1	0.354	1	1	1_0.gif
144.02	1	4	2	4	0.896	4	1	4_2.gif
145.02	1	1	2	4	0.008	1	0	1_2.gif
146.02	1	4	2	4	0.248	4	1	4_2.gif
147.02	1	1	2	1	0.272	1	1	1_2.gif
148.02	1	2	2	4	0.229	4	1	2_2.gif
149.02	1	4	2	1	0.291	1	1	4_2.gif
150.02	1	3	2	2	0.258	2	1	3_2.gif
151.02	1	2	2	4	0.229	4	1	2_2.gif
152.02	1	1	2	3	0.09	3	1	1_2.gif
153.02	1	2	2	2	0.194	2	1	2_2.gif
154.02	1	1	2	1	0.238	1	1	1_2.gif
155.02	1	3	2	6	0	2	n/a	3_2.gif
156.02	1	4	2	1	0.041	1	1	4_2.gif
157.02	1	1	2	4	0.008	3	0	1_2.gif
158.02	1	4	2	6	0	4	n/a	4_2.gif
159.02	1	3	2	1	0.028	1	1	3_2.gif
160.02	1	4	0	4	0.009	4	1	4_0.gif
161.02	1	3	0	4	0.178	3	0	3_0.gif
162.02	1	4	0	4	0.469	4	1	4_0.gif
163.02	1	1	0	1	0.401	1	1	1_0.gif
164.02	1	2	0	2	0.342	2	1	2_0.gif
165.02	1	1	0	1	0.447	1	1	1_0.gif
166.02	1	2	0	2	0.489	2	1	2_0.gif
167.02	1	3	0	3	0.458	3	1	3_0.gif
168.02	1	4	0	4	0.414	4	1	4_0.gif
169.02	1	2	0	2	0.509	2	1	2_0.gif
170.02	1	3	0	3	0.422	3	1	3_0.gif
171.02	1	4	0	4	0.406	4	1	4_0.gif
172.02	1	3	0	3	0.424	3	1	3_0.gif
173.02	1	4	0	4	0.35	4	1	4_0.gif
174.02	1	2	0	2	0.785	2	1	2_0.gif
175.02	1	1	0	2	0.009	1	0	1_0.gif
176.021	1	3	2	6	0	2	n/a	3_2.gif
177.021	1	4	2	6	0	1	n/a	4_2.gif
178.021	1	2	2	3	0.319	3	1	2_2.gif
179.021	1	4	2	4	0.277	4	1	4_2.gif
180.021	1	3	2	2	0.285	2	1	3_2.gif
181.021	1	4	2	4	0.233	4	1	4_2.gif
182.021	1	2	2	3	0.246	3	1	2_2.gif
183.021	1	3	2	4	0.395	4	1	3_2.gif
184.021	1	4	2	2	0.268	2	1	4_2.gif
185.021	1	1	2	3	0.216	3	1	1_2.gif
186.021	1	4	2	4	0.222	4	1	4_2.gif
187.021	1	3	2	1	0.196	1	1	3_2.gif
188.021	1	2	2	4	0.202	4	1	2_2.gif
189.021	1	4	2	3	0.179	3	1	4_2.gif
190.021	1	3	2	2	0.248	2	1	3_2.gif
191.021	1	1	2	4	0.221	4	1	1_2.gif
192.022	1	3	0	3	0.208	3	1	3_0.gif
193.022	1	2	0	2	0.672	2	1	2_0.gif
194.022	1	1	0	1	0.526	1	1	1_0.gif
195.022	1	2	0	2	0.461	2	1	2_0.gif
196.022	1	1	0	1	0.324	1	1	1_0.gif
197.022	1	2	0	2	0.408	2	1	2_0.gif
198.022	1	4	0	4	0.519	4	1	4_0.gif
199.022	1	2	0	2	0.414	2	1	2_0.gif
200.022	1	4	0	4	0.541	4	1	4_0.gif
201.022	1	3	0	3	0.434	3	1	3_0.gif
202.022	1	2	0	2	0.434	2	1	2_0.gif
203.022	1	3	0	3	0.445	3	1	3_0.gif
204.022	1	2	0	2	0.555	2	1	2_0.gif
205.022	1	3	0	3	0.384	3	1	3_0.gif
206.022	1	4	0	4	0.307	4	1	4_0.gif
207.022	1	3	0	3	0.378	3	1	3_0.gif
208.023	1	1	2	6	0	4	n/a	1_2.gif
209.023	1	4	2	6	0	3	n/a	4_2.gif
210.023	1	3	2	1	0.244	1	1	3_2.gif
211.023	1	4	2	4	0.169	4	1	4_2.gif
212.023	1	1	2	3	0.067	3	1	1_2.gif
213.023	1	2	2	4	0.037	4	1	2_2.gif
214.023	1	1	2	1	0.009	1	1	1_2.gif
215.023	1	2	2	2	0.19	2	1	2_2.gif
216.023	1	1	2	1	0.218	1	1	1_2.gif
217.023	1	2	2	2	0.328	2	1	2_2.gif
218.023	1	4	2	1	0.19	1	1	4_2.gif
219.023	1	3	2	2	0.192	2	1	3_2.gif
220.023	1	2	2	4	0.2	4	1	2_2.gif
221.023	1	4	2	3	0.277	3	1	4_2.gif
222.023	1	3	2	6	0	2	n/a	3_2.gif
223.023	1	1	2	4	0.649	4	1	1_2.gif
224.024	1	3	0	3	0.59	3	1	3_0.gif
225.024	1	4	0	4	0.511	4	1	4_0.gif
226.024	1	1	0	1	0.422	1	1	1_0.gif
227.024	1	3	0	3	0.451	3	1	3_0.gif
228.024	1	2	0	2	0.763	2	1	2_0.gif
229.024	1	3	0	2	0.009	3	0	3_0.gif
230.024	1	1	0	1	0.445	1	1	1_0.gif
231.024	1	3	0	3	0.442	3	1	3_0.gif
232.024	1	2	0	2	0.439	2	1	2_0.gif
233.024	1	3	0	3	0.368	3	1	3_0.gif
234.024	1	1	0	1	0.533	1	1	1_0.gif
235.024	1	3	0	3	0.413	3	1	3_0.gif
236.024	1	4	0	4	0.379	4	1	4_0.gif
237.024	1	2	0	2	0.374	2	1	2_0.gif
238.024	1	1	0	1	0.326	1	1	1_0.gif
239.024	1	4	0	4	0.545	4	1	4_0.gif
240.025	1	3	2	6	0	1	n/a	3_2.gif
241.025	1	4	2	6	0	4	n/a	4_2.gif
242.025	1	2	2	3	0.145	3	1	2_2.gif
243.025	1	3	2	4	0.137	4	1	3_2.gif
244.025	1	1	2	2	0.19	2	1	1_2.gif
245.025	1	2	2	3	0.202	3	1	2_2.gif
246.025	1	4	2	1	0.149	1	1	4_2.gif
247.025	1	1	2	2	0.24	2	1	1_2.gif
248.025	1	3	2	4	0.203	4	1	3_2.gif
249.025	1	1	2	1	0.229	1	1	1_2.gif
250.025	1	2	2	3	0.176	3	1	2_2.gif
251.025	1	4	2	1	0.102	1	1	4_2.gif
252.025	1	3	2	2	0.058	2	1	3_2.gif
253.025	1	1	2	4	0.009	4	1	1_2.gif
254.025	1	3	2	3	0.07	3	1	3_2.gif
255.025	1	4	2	1	0.036	1	1	4_2.gif
