onset	duration	nback_display	trial_type	response	response_time	correct_response	correct	stim_file
0	1	2	0	2	0.807	2	1	2_0.gif
1	1	1	0	2	0.003	1	0	1_0.gif
2	1	4	0	4	0.431	4	1	4_0.gif
3	1	2	0	2	0.322	2	1	2_0.gif
4	1	1	0	1	0.32	1	1	1_0.gif
5	1	2	0	2	0.497	2	1	2_0.gif
6	1	1	0	1	0.308	1	1	1_0.gif
7	1	3	0	3	0.416	3	1	3_0.gif
8	1	4	0	4	0.441	4	1	4_0.gif
9	1	3	0	3	0.449	3	1	3_0.gif
10	1	4	0	4	0.452	4	1	4_0.gif
11	1	1	0	1	0.414	1	1	1_0.gif
12	1	3	0	3	0.401	3	1	3_0.gif
13	1	1	0	1	0.42	1	1	1_0.gif
14	1	4	0	4	0.414	4	1	4_0.gif
15	1	1	0	1	0.365	1	1	1_0.gif
16	1	2	2	2	0.401	4	0	2_2.gif
17	1	3	2	6	0	1	n/a	3_2.gif
18	1	1	2	2	0.676	2	1	1_2.gif
19	1	3	2	6	0	3	n/a	3_2.gif
20	1	2	2	1	0.485	1	1	2_2.gif
21	1	4	2	6	0	3	n/a	4_2.gif
22	1	1	2	1	0.469	2	0	1_2.gif
23	1	3	2	6	0	4	n/a	3_2.gif
24	1	1	2	6	0	1	n/a	1_2.gif
25	1	2	2	1	0.217	3	0	2_2.gif
26	1	1	2	6	0	1	n/a	1_2.gif
27	1	3	2	1	0.428	2	0	3_2.gif
28	1	4	2	6	0	1	n/a	4_2.gif
29	1	3	2	3	0.763	3	1	3_2.gif
30	1	1	2	6	0	4	n/a	1_2.gif
31	1	2	2	1	0.53	3	0	2_2.gif
32	1	4	0	4	0.934	4	1	4_0.gif
33	1	1	0	4	0.004	1	0	1_0.gif
34	1	4	0	4	0.504	4	1	4_0.gif
35	1	1	0	6	0	1	n/a	1_0.gif
36	1	4	0	4	0.368	4	1	4_0.gif
37	1	2	0	2	0.264	2	1	2_0.gif
38	1	3	0	3	0.368	3	1	3_0.gif
39	1	2	0	2	0.261	2	1	2_0.gif
40	1	3	0	3	0.381	3	1	3_0.gif
41	1	1	0	1	0.547	1	1	1_0.gif
42	1	4	0	4	0.364	4	1	4_0.gif
43	1	3	0	3	0.395	3	1	3_0.gif
44	1	1	0	1	0.425	1	1	1_0.gif
45	1	2	0	2	0.294	2	1	2_0.gif
46	1	3	0	3	0.29	3	1	3_0.gif
47	1	1	0	1	0.305	1	1	1_0.gif
48	1	2	2	2	0.374	3	0	2_2.gif
49	1	3	2	6	0	1	n/a	3_2.gif
50	1	4	2	2	0.452	2	1	4_2.gif
51	1	1	2	3	0.643	3	1	1_2.gif
52	1	2	2	1	0.84	4	0	2_2.gif
53	1	1	2	1	0.004	1	1	1_2.gif
54	1	4	2	1	0.063	2	0	4_2.gif
55	1	2	2	2	0.683	1	0	2_2.gif
56	1	4	2	6	0	4	n/a	4_2.gif
57	1	2	2	2	0.606	2	1	2_2.gif
58	1	3	2	6	0	4	n/a	3_2.gif
59.001	1	1	2	3	0.844	2	0	1_2.gif
60.001	1	3	2	3	0.003	3	1	3_2.gif
61.001	1	1	2	1	0.683	1	1	1_2.gif
62.001	1	2	2	6	0	3	n/a	2_2.gif
63.001	1	3	2	6	0	1	n/a	3_2.gif
64.001	1	4	0	2	0.296	4	0	4_0.gif
65.001	1	2	0	4	0.003	2	0	2_0.gif
66.001	1	4	0	4	0.563	4	1	4_0.gif
67.001	1	1	0	1	0.347	1	1	1_0.gif
68.001	1	4	0	4	0.446	4	1	4_0.gif
69.001	1	1	0	1	0.336	1	1	1_0.gif
70.001	1	3	0	3	0.399	3	1	3_0.gif
71.001	1	4	0	4	0.409	4	1	4_0.gif
72.001	1	3	0	3	0.409	3	1	3_0.gif
73.001	1	4	0	4	0.389	4	1	4_0.gif
74.001	1	2	0	2	0.395	2	1	2_0.gif
75.001	1	1	0	1	0.326	1	1	1_0.gif
76.001	1	4	0	4	0.425	4	1	4_0.gif
77.001	1	1	0	6	0	1	n/a	1_0.gif
78.001	1	4	0	4	0.395	4	1	4_0.gif
79.001	1	3	0	3	0.325	3	1	3_0.gif
80.001	1	4	2	4	0.511	4	1	4_2.gif
81.001	1	2	2	4	0.896	3	0	2_2.gif
82.001	1	3	2	4	0.003	4	1	3_2.gif
83.001	1	2	2	2	0.418	2	1	2_2.gif
84.001	1	3	2	3	0.694	3	1	3_2.gif
85.001	1	4	2	6	0	2	n/a	4_2.gif
86.001	1	3	2	6	0	3	n/a	3_2.gif
87.001	1	1	2	3	0.029	4	0	1_2.gif
88.001	1	2	2	1	0.726	3	0	2_2.gif
89.001	1	1	2	6	0	1	n/a	1_2.gif
90.001	1	4	2	2	0.198	2	1	4_2.gif
91.001	1	3	2	6	0	1	n/a	3_2.gif
92.001	1	4	2	3	0.569	4	0	4_2.gif
93.001	1	3	2	6	0	3	n/a	3_2.gif
94.001	1	2	2	6	0	4	n/a	2_2.gif
95.001	1	4	2	3	0.045	3	1	4_2.gif
96.001	1	3	0	6	0	3	n/a	3_0.gif
97.001	1	4	0	2	0.062	4	0	4_0.gif
98.001	1	2	0	3	0.507	2	0	2_0.gif
99.001	1	1	0	6	0	1	n/a	1_0.gif
100.001	1	4	0	1	0.994	4	0	4_0.gif
101.001	1	1	0	1	0.004	1	1	1_0.gif
102.001	1	3	0	6	0	3	n/a	3_0.gif
103.001	1	1	0	6	0	1	n/a	1_0.gif
104.001	1	3	0	1	0.057	3	0	3_0.gif
105.001	1	1	0	1	0.823	1	1	1_0.gif
106.001	1	3	0	1	0.004	3	0	3_0.gif
107.001	1	1	0	6	0	1	n/a	1_0.gif
108.001	1	3	0	1	0.334	3	0	3_0.gif
109.001	1	2	0	6	0	2	n/a	2_0.gif
110.001	1	4	0	2	0.823	4	0	4_0.gif
111.001	1	3	0	2	0.004	3	0	3_0.gif
112.002	1	1	2	1	0.619	4	0	1_2.gif
113.002	1	4	2	4	0.572	3	0	4_2.gif
114.002	1	3	2	3	0.886	1	0	3_2.gif
115.002	1	1	2	3	0.003	4	0	1_2.gif
116.002	1	2	2	2	0.699	3	0	2_2.gif
117.002	1	4	2	4	0.514	1	0	4_2.gif
118.002	1	2	2	2	0.78	2	1	2_2.gif
119.002	1	1	2	6	0	4	n/a	1_2.gif
120.002	1	3	2	1	0.023	2	0	3_2.gif
121.002	1	2	2	6	0	1	n/a	2_2.gif
122.002	1	1	2	1	0.86	3	0	1_2.gif
123.002	1	4	2	1	0.003	2	0	4_2.gif
124.002	1	2	2	6	0	1	n/a	2_2.gif
125.002	1	4	2	4	0.572	4	1	4_2.gif
126.002	1	1	2	1	0.47	2	0	1_2.gif
127.002	1	4	2	6	0	4	n/a	4_2.gif
128.002	1	3	0	3	0.909	3	1	3_0.gif
129.002	1	4	0	3	0.003	4	0	4_0.gif
130.002	1	3	0	3	0.404	3	1	3_0.gif
131.002	1	1	0	1	0.438	1	1	1_0.gif
132.002	1	4	0	4	0.432	4	1	4_0.gif
133.002	1	3	0	3	0.323	3	1	3_0.gif
134.002	1	4	0	4	0.496	4	1	4_0.gif
135.002	1	3	0	3	0.32	3	1	3_0.gif
136.002	1	4	0	4	0.467	4	1	4_0.gif
137.002	1	3	0	3	0.292	3	1	3_0.gif
138.002	1	1	0	6	0	1	n/a	1_0.gif
139.002	1	3	0	3	0.664	3	1	3_0.gif
140.002	1	2	0	2	0.405	2	1	2_0.gif
141.002	1	1	0	1	0.387	1	1	1_0.gif
142.002	1	4	0	4	0.337	4	1	4_0.gif
143.002	1	3	0	3	0.269	3	1	3_0.gif
144.002	1	1	2	1	0.416	4	0	1_2.gif
145.002	1	4	2	6	0	3	n/a	4_2.gif
146.002	1	3	2	1	0.128	1	1	3_2.gif
147.002	1	4	2	6	0	4	n/a	4_2.gif
148.002	1	1	2	3	0.031	3	1	1_2.gif
149.002	1	4	2	1	0.781	4	0	4_2.gif
150.002	1	3	2	1	0.003	1	1	3_2.gif
151.002	1	1	2	3	0.37	4	0	1_2.gif
152.002	1	2	2	6	0	3	n/a	2_2.gif
153.002	1	3	2	1	0.297	1	1	3_2.gif
154.002	1	1	2	6	0	2	n/a	1_2.gif
155.002	1	2	2	2	0.064	3	0	2_2.gif
156.002	1	1	2	6	0	1	n/a	1_2.gif
157.002	1	2	2	2	0.453	2	1	2_2.gif
158.002	1	4	2	6	0	1	n/a	4_2.gif
159.002	1	1	2	6	0	2	n/a	1_2.gif
160.003	1	4	0	4	0.394	4	1	4_0.gif
161.003	1	2	0	2	0.311	2	1	2_0.gif
162.003	1	4	0	4	0.501	4	1	4_0.gif
163.003	1	2	0	2	0.376	2	1	2_0.gif
164.003	1	1	0	1	0.366	1	1	1_0.gif
165.003	1	2	0	2	0.372	2	1	2_0.gif
166.003	1	3	0	3	0.395	3	1	3_0.gif
167.003	1	4	0	4	0.357	4	1	4_0.gif
168.003	1	3	0	3	0.415	3	1	3_0.gif
169.003	1	2	0	2	0.25	2	1	2_0.gif
170.003	1	3	0	3	0.353	3	1	3_0.gif
171.003	1	4	0	4	0.394	4	1	4_0.gif
172.003	1	3	0	3	0.405	3	1	3_0.gif
173.003	1	1	0	1	0.407	1	1	1_0.gif
174.003	1	2	0	6	0	2	n/a	2_0.gif
175.003	1	1	0	1	0.546	1	1	1_0.gif
176.003	1	3	2	3	0.516	2	0	3_2.gif
177.003	1	4	2	6	0	1	n/a	4_2.gif
178.003	1	3	2	3	0.37	3	1	3_2.gif
179.003	1	1	2	6	0	4	n/a	1_2.gif
180.003	1	2	2	1	0.269	3	0	2_2.gif
181.003	1	1	2	1	0.809	1	1	1_2.gif
182.003	1	3	2	6	0	2	n/a	3_2.gif
183.003	1	4	2	1	0.902	1	1	4_2.gif
184.003	1	2	2	1	0.003	3	0	2_2.gif
185.003	1	4	2	4	0.647	4	1	4_2.gif
186.003	1	3	2	6	0	2	n/a	3_2.gif
187.003	1	4	2	4	0.836	4	1	4_2.gif
188.003	1	1	2	4	0.003	3	0	1_2.gif
189.003	1	4	2	6	0	4	n/a	4_2.gif
190.003	1	2	2	1	0.7	1	1	2_2.gif
191.003	1	4	2	6	0	4	n/a	4_2.gif
192.003	1	3	0	2	0.491	3	0	3_0.gif
193.003	1	2	0	3	0.003	2	0	2_0.gif
194.003	1	1	0	1	0.41	1	1	1_0.gif
195.003	1	4	0	6	0	4	n/a	4_0.gif
196.003	1	2	0	6	0	2	n/a	2_0.gif
197.003	1	1	0	1	0.331	1	1	1_0.gif
198.003	1	2	0	2	0.401	2	1	2_0.gif
199.003	1	1	0	1	0.575	1	1	1_0.gif
200.003	1	3	0	3	0.481	3	1	3_0.gif
201.003	1	4	0	4	0.259	4	1	4_0.gif
202.003	1	3	0	3	0.451	3	1	3_0.gif
203.003	1	4	0	4	0.646	4	1	4_0.gif
204.003	1	1	0	1	0.383	1	1	1_0.gif
205.003	1	3	0	3	0.455	3	1	3_0.gif
206.003	1	1	0	1	0.592	1	1	1_0.gif
207.003	1	4	0	4	0.328	4	1	4_0.gif
208.003	1	1	2	1	0.59	1	1	1_2.gif
209.003	1	2	2	6	0	4	n/a	2_2.gif
210.003	1	3	2	1	0.219	1	1	3_2.gif
211.003	1	1	2	2	0.645	2	1	1_2.gif
212.003	1	3	2	3	0.955	3	1	3_2.gif
213.003	1	2	2	3	0.004	1	0	2_2.gif
214.003	1	4	2	3	0.42	3	1	4_2.gif
215.003	1	1	2	2	0.623	2	1	1_2.gif
216.003	1	3	2	6	0	4	n/a	3_2.gif
217.003	1	1	2	1	0.349	1	1	1_2.gif
218.003	1	2	2	6	0	3	n/a	2_2.gif
219.003	1	1	2	1	0.439	1	1	1_2.gif
220.003	1	3	2	6	0	2	n/a	3_2.gif
221.003	1	4	2	3	0.776	1	0	4_2.gif
222.003	1	3	2	6	0	3	n/a	3_2.gif
223.003	1	1	2	6	0	4	n/a	1_2.gif
224.004	1	2	0	3	0.59	2	0	2_0.gif
225.004	1	4	0	2	0.066	4	0	4_0.gif
226.004	1	1	0	1	0.374	1	1	1_0.gif
227.004	1	4	0	4	0.397	4	1	4_0.gif
228.004	1	1	0	1	0.462	1	1	1_0.gif
229.004	1	4	0	4	0.271	4	1	4_0.gif
230.004	1	2	0	2	0.375	2	1	2_0.gif
231.004	1	3	0	3	0.363	3	1	3_0.gif
232.004	1	2	0	2	0.324	2	1	2_0.gif
233.004	1	3	0	3	0.513	3	1	3_0.gif
234.004	1	1	0	1	0.295	1	1	1_0.gif
235.004	1	4	0	4	0.27	4	1	4_0.gif
236.004	1	3	0	3	0.419	3	1	3_0.gif
237.004	1	1	0	1	0.303	1	1	1_0.gif
238.004	1	2	0	2	0.253	2	1	2_0.gif
239.004	1	3	0	3	0.227	3	1	3_0.gif
240.004	1	1	2	1	0.647	2	0	1_2.gif
241.004	1	2	2	6	0	3	n/a	2_2.gif
242.004	1	3	2	1	0.988	1	1	3_2.gif
243.004	1	4	2	1	0.003	2	0	4_2.gif
244.004	1	1	2	3	0.367	3	1	1_2.gif
245.004	1	2	2	1	0.796	4	0	2_2.gif
246.004	1	1	2	1	0.003	1	1	1_2.gif
247.004	1	4	2	1	0.52	2	0	4_2.gif
248.004	1	2	2	6	0	1	n/a	2_2.gif
249.004	1	4	2	4	0.942	4	1	4_2.gif
250.004	1	2	2	4	0.003	2	0	2_2.gif
251.004	1	3	2	6	0	4	n/a	3_2.gif
252.004	1	1	2	2	0.887	2	1	1_2.gif
253.004	1	3	2	2	0.003	3	0	3_2.gif
254.004	1	1	2	3	0.632	1	0	1_2.gif
255.004	1	2	2	6	0	3	n/a	2_2.gif
