onset	duration	nback_display	trial_type	response	response_time	correct_response	correct	stim_file
0	1	2	0	2	0.616	2	1	2_0.gif
1	1	1	0	1	0.418	1	1	1_0.gif
2	1	4	0	4	0.486	4	1	4_0.gif
3	1	2	0	2	0.403	2	1	2_0.gif
4	1	1	0	1	0.386	1	1	1_0.gif
5	1	4	0	4	0.314	4	1	4_0.gif
6	1	2	0	2	0.335	2	1	2_0.gif
7	1	3	0	3	0.42	3	1	3_0.gif
8	1	4	0	4	0.608	4	1	4_0.gif
9	1	3	0	3	0.401	3	1	3_0.gif
10	1	1	0	1	0.43	1	1	1_0.gif
11	1	3	0	3	0.411	3	1	3_0.gif
12	1	4	0	4	0.301	4	1	4_0.gif
13	1	1	0	1	0.443	1	1	1_0.gif
14	1	3	0	3	0.403	3	1	3_0.gif
15	1	1	0	1	0.486	1	1	1_0.gif
16	1	4	2	6	0	3	n/a	4_2.gif
17	1	3	2	6	0	1	n/a	3_2.gif
18	1	1	2	4	0.892	4	1	1_2.gif
19	1	4	2	4	0.003	3	0	4_2.gif
20	1	2	2	3	0.503	1	0	2_2.gif
21	1	3	2	1	0.86	4	0	3_2.gif
22	1	1	2	1	0.004	2	0	1_2.gif
23	1	3	2	2	0.004	3	0	3_2.gif
24	1	1	2	4	0.55	1	0	1_2.gif
25	1	4	2	3	0.235	3	1	4_2.gif
26	1	2	2	1	0.224	1	1	2_2.gif
27	1	3	2	4	0.463	4	1	3_2.gif
28	1	4	2	2	0.408	2	1	4_2.gif
29	1	1	2	3	0.501	3	1	1_2.gif
30	1	4	2	4	0.477	4	1	4_2.gif
31	1	2	2	6	0	1	n/a	2_2.gif
32	1	4	0	1	0.163	4	0	4_0.gif
33	1	1	0	4	0.003	1	0	1_0.gif
34	1	3	0	3	0.38	3	1	3_0.gif
35	1	4	0	4	0.392	4	1	4_0.gif
36	1	2	0	2	0.318	2	1	2_0.gif
37	1	1	0	1	0.339	1	1	1_0.gif
38	1	2	0	2	0.431	2	1	2_0.gif
39	1	1	0	1	0.356	1	1	1_0.gif
40	1	2	0	2	0.403	2	1	2_0.gif
41	1	1	0	1	0.319	1	1	1_0.gif
42	1	3	0	3	0.375	3	1	3_0.gif
43	1	4	0	4	0.231	4	1	4_0.gif
44	1	1	0	1	0.407	1	1	1_0.gif
45	1	2	0	2	0.437	2	1	2_0.gif
46	1	4	0	4	0.38	4	1	4_0.gif
47	1	3	0	3	0.32	3	1	3_0.gif
48.001	1	1	2	6	0	4	n/a	1_2.gif
49.001	1	4	2	6	0	3	n/a	4_2.gif
50.001	1	3	2	6	0	1	n/a	3_2.gif
51.001	1	1	2	1	0.07	4	0	1_2.gif
52.001	1	2	2	4	0.291	3	0	2_2.gif
53.001	1	3	2	3	0.329	1	0	3_2.gif
54.001	1	1	2	2	0.569	2	1	1_2.gif
55.001	1	2	2	3	0.727	3	1	2_2.gif
56.001	1	3	2	1	0.728	1	1	3_2.gif
57.001	1	4	2	6	0	2	n/a	4_2.gif
58.001	1	1	2	2	0.181	3	0	1_2.gif
59.001	1	2	2	4	0.677	4	1	2_2.gif
60.001	1	1	2	1	0.314	1	1	1_2.gif
61.001	1	4	2	4	0.145	2	0	4_2.gif
62.001	1	2	2	4	0.818	1	0	2_2.gif
63.001	1	4	2	4	0.003	4	1	4_2.gif
64.002	1	3	0	1	0.12	3	0	3_0.gif
65.002	1	1	0	1	0.44	1	1	1_0.gif
66.002	1	2	0	2	0.428	2	1	2_0.gif
67.002	1	1	0	1	0.355	1	1	1_0.gif
68.002	1	3	0	3	0.478	3	1	3_0.gif
69.002	1	1	0	1	0.459	1	1	1_0.gif
70.002	1	2	0	2	0.337	2	1	2_0.gif
71.002	1	1	0	1	0.404	1	1	1_0.gif
72.002	1	2	0	2	0.338	2	1	2_0.gif
73.002	1	4	0	4	0.471	4	1	4_0.gif
74.002	1	3	0	3	0.347	3	1	3_0.gif
75.002	1	1	0	1	0.346	1	1	1_0.gif
76.002	1	3	0	3	0.395	3	1	3_0.gif
77.002	1	4	0	4	0.296	4	1	4_0.gif
78.002	1	3	0	3	0.319	3	1	3_0.gif
79.002	1	4	0	4	0.31	4	1	4_0.gif
80.002	1	2	2	6	0	3	n/a	2_2.gif
81.002	1	1	2	6	0	4	n/a	1_2.gif
82.002	1	4	2	2	0.622	2	1	4_2.gif
83.002	1	2	2	6	0	1	n/a	2_2.gif
84.002	1	4	2	1	0.189	4	0	4_2.gif
85.002	1	1	2	4	0.518	2	0	1_2.gif
86.002	1	4	2	2	0.495	4	0	4_2.gif
87.002	1	3	2	1	0.482	1	1	3_2.gif
88.002	1	2	2	4	0.391	4	1	2_2.gif
89.002	1	3	2	3	0.681	3	1	3_2.gif
90.002	1	4	2	2	0.97	2	1	4_2.gif
91.002	1	1	2	2	0.003	3	0	1_2.gif
92.002	1	2	2	3	0.003	4	0	2_2.gif
93.002	1	1	2	2	0.376	1	0	1_2.gif
94.002	1	2	2	1	0.407	2	0	2_2.gif
95.002	1	1	2	2	0.335	1	0	1_2.gif
96.003	1	3	0	3	0.454	3	1	3_0.gif
97.003	1	4	0	4	0.506	4	1	4_0.gif
98.003	1	1	0	1	0.419	1	1	1_0.gif
99.003	1	2	0	2	0.337	2	1	2_0.gif
100.003	1	1	0	1	0.396	1	1	1_0.gif
101.003	1	4	0	4	0.49	4	1	4_0.gif
102.003	1	3	0	3	0.321	3	1	3_0.gif
103.003	1	4	0	4	0.315	4	1	4_0.gif
104.003	1	3	0	3	0.384	3	1	3_0.gif
105.003	1	4	0	4	0.346	4	1	4_0.gif
106.003	1	1	0	1	0.42	1	1	1_0.gif
107.003	1	4	0	4	0.392	4	1	4_0.gif
108.003	1	1	0	1	0.329	1	1	1_0.gif
109.003	1	4	0	4	0.319	4	1	4_0.gif
110.003	1	1	0	1	0.305	1	1	1_0.gif
111.003	1	4	0	4	0.255	4	1	4_0.gif
112.003	1	1	2	1	0.352	1	1	1_2.gif
113.003	1	2	2	6	0	4	n/a	2_2.gif
114.003	1	4	2	1	0.607	1	1	4_2.gif
115.003	1	3	2	6	0	2	n/a	3_2.gif
116.003	1	1	2	2	0.064	4	0	1_2.gif
117.003	1	4	2	4	0.003	3	0	4_2.gif
118.003	1	3	2	3	0.347	1	0	3_2.gif
119.003	1	1	2	4	0.63	4	1	1_2.gif
120.003	1	4	2	1	0.49	3	0	4_2.gif
121.003	1	2	2	3	0.904	1	0	2_2.gif
122.003	1	1	2	3	0.003	4	0	1_2.gif
123.003	1	4	2	4	0.003	2	0	4_2.gif
124.003	1	1	2	1	0.003	1	1	1_2.gif
125.003	1	3	2	2	0.525	4	0	3_2.gif
126.003	1	1	2	1	0.352	1	1	1_2.gif
127.003	1	3	2	3	0.28	3	1	3_2.gif
128.003	1	2	0	2	0.457	2	1	2_0.gif
129.003	1	1	0	1	0.436	1	1	1_0.gif
130.003	1	4	0	4	0.482	4	1	4_0.gif
131.003	1	3	0	3	0.322	3	1	3_0.gif
132.003	1	4	0	4	0.445	4	1	4_0.gif
133.003	1	1	0	1	0.313	1	1	1_0.gif
134.003	1	3	0	3	0.374	3	1	3_0.gif
135.003	1	4	0	4	0.272	4	1	4_0.gif
136.003	1	1	0	1	0.371	1	1	1_0.gif
137.003	1	3	0	3	0.349	3	1	3_0.gif
138.003	1	2	0	2	0.341	2	1	2_0.gif
139.003	1	3	0	3	0.329	3	1	3_0.gif
140.003	1	4	0	4	0.3	4	1	4_0.gif
141.003	1	3	0	3	0.431	3	1	3_0.gif
142.003	1	1	0	1	0.375	1	1	1_0.gif
143.003	1	3	0	3	0.396	3	1	3_0.gif
144.004	1	2	2	6	0	1	n/a	2_2.gif
145.004	1	1	2	6	0	3	n/a	1_2.gif
146.005	1	4	2	2	0.418	2	1	4_2.gif
147.005	1	3	2	1	0.587	1	1	3_2.gif
148.005	1	1	2	3	0.524	4	0	1_2.gif
149.005	1	4	2	4	0.498	3	0	4_2.gif
150.005	1	3	2	6	0	1	n/a	3_2.gif
151.005	1	4	2	3	0.853	4	0	4_2.gif
152.005	1	1	2	3	0.003	3	1	1_2.gif
153.005	1	4	2	6	0	4	n/a	4_2.gif
154.005	1	2	2	1	0.232	1	1	2_2.gif
155.005	1	3	2	6	0	4	n/a	3_2.gif
156.005	1	1	2	2	0.228	2	1	1_2.gif
157.005	1	4	2	3	0.28	3	1	4_2.gif
158.005	1	1	2	6	0	1	n/a	1_2.gif
159.005	1	2	2	4	0.214	4	1	2_2.gif
160.005	1	1	0	1	0.353	1	1	1_0.gif
161.005	1	2	0	2	0.478	2	1	2_0.gif
162.005	1	4	0	4	0.529	4	1	4_0.gif
163.005	1	1	0	1	0.46	1	1	1_0.gif
164.005	1	4	0	4	0.406	4	1	4_0.gif
165.005	1	3	0	3	0.318	3	1	3_0.gif
166.005	1	1	0	1	0.341	1	1	1_0.gif
167.005	1	4	0	4	0.345	4	1	4_0.gif
168.005	1	2	0	2	0.285	2	1	2_0.gif
169.005	1	1	0	1	0.295	1	1	1_0.gif
170.005	1	2	0	2	0.37	2	1	2_0.gif
171.005	1	1	0	1	0.359	1	1	1_0.gif
172.005	1	3	0	3	0.369	3	1	3_0.gif
173.005	1	4	0	4	0.301	4	1	4_0.gif
174.005	1	2	0	2	0.313	2	1	2_0.gif
175.005	1	4	0	4	0.465	4	1	4_0.gif
176.006	1	1	2	1	0.354	2	0	1_2.gif
177.006	1	4	2	6	0	4	n/a	4_2.gif
178.006	1	1	2	1	0.463	1	1	1_2.gif
179.006	1	3	2	6	0	4	n/a	3_2.gif
180.006	1	4	2	4	0.492	1	0	4_2.gif
181.006	1	1	2	6	0	3	n/a	1_2.gif
182.006	1	2	2	3	0.197	4	0	2_2.gif
183.006	1	1	2	4	0.35	1	0	1_2.gif
184.006	1	4	2	1	0.313	2	0	4_2.gif
185.006	1	3	2	2	0.731	1	0	3_2.gif
186.006	1	4	2	2	0.003	4	0	4_2.gif
187.006	1	2	2	1	0.139	3	0	2_2.gif
188.006	1	4	2	3	0.226	4	0	4_2.gif
189.006	1	3	2	6	0	2	n/a	3_2.gif
190.006	1	4	2	4	0.193	4	1	4_2.gif
191.006	1	1	2	4	0.909	3	0	1_2.gif
192.007	1	3	0	4	0.003	3	0	3_0.gif
193.007	1	2	0	2	0.391	2	1	2_0.gif
194.007	1	4	0	4	0.493	4	1	4_0.gif
195.007	1	3	0	3	0.364	3	1	3_0.gif
196.007	1	2	0	2	0.296	2	1	2_0.gif
197.007	1	1	0	1	0.368	1	1	1_0.gif
198.007	1	4	0	4	0.348	4	1	4_0.gif
199.007	1	2	0	2	0.313	2	1	2_0.gif
200.007	1	1	0	1	0.273	1	1	1_0.gif
201.007	1	4	0	4	0.412	4	1	4_0.gif
202.007	1	2	0	2	0.348	2	1	2_0.gif
203.007	1	3	0	3	0.297	3	1	3_0.gif
204.007	1	4	0	4	0.429	4	1	4_0.gif
205.007	1	3	0	3	0.335	3	1	3_0.gif
206.007	1	1	0	1	0.336	1	1	1_0.gif
207.007	1	3	0	3	0.334	3	1	3_0.gif
208.008	1	4	2	6	0	1	n/a	4_2.gif
209.008	1	1	2	6	0	3	n/a	1_2.gif
210.008	1	3	2	4	0.355	4	1	3_2.gif
211.008	1	1	2	1	0.476	1	1	1_2.gif
212.008	1	4	2	3	0.524	3	1	4_2.gif
213.008	1	3	2	4	0.948	1	0	3_2.gif
214.008	1	1	2	4	0.003	4	1	1_2.gif
215.008	1	4	2	1	0.349	3	0	4_2.gif
216.008	1	2	2	6	0	1	n/a	2_2.gif
217.008	1	3	2	3	0.297	4	0	3_2.gif
218.008	1	1	2	2	0.306	2	1	1_2.gif
219.008	1	3	2	1	0.417	3	0	3_2.gif
220.008	1	1	2	3	0.69	1	0	1_2.gif
221.008	1	4	2	3	0.003	3	1	4_2.gif
222.008	1	2	2	1	0.209	1	1	2_2.gif
223.008	1	3	2	4	0.26	4	1	3_2.gif
224.008	1	4	0	4	0.582	4	1	4_0.gif
225.008	1	1	0	1	0.41	1	1	1_0.gif
226.008	1	4	0	4	0.431	4	1	4_0.gif
227.008	1	2	0	2	0.302	2	1	2_0.gif
228.008	1	4	0	4	0.467	4	1	4_0.gif
229.008	1	1	0	1	0.372	1	1	1_0.gif
230.008	1	3	0	3	0.379	3	1	3_0.gif
231.008	1	4	0	4	0.326	4	1	4_0.gif
232.008	1	2	0	2	0.264	2	1	2_0.gif
233.008	1	1	0	1	0.263	1	1	1_0.gif
234.008	1	2	0	2	0.426	2	1	2_0.gif
235.008	1	1	0	1	0.374	1	1	1_0.gif
236.008	1	2	0	2	0.283	2	1	2_0.gif
237.008	1	1	0	1	0.326	1	1	1_0.gif
238.008	1	3	0	3	0.327	3	1	3_0.gif
239.008	1	4	0	4	0.244	4	1	4_0.gif
240.009	1	1	2	1	0.482	3	0	1_2.gif
241.009	1	2	2	6	0	4	n/a	2_2.gif
242.009	1	4	2	1	0.615	1	1	4_2.gif
243.009	1	3	2	6	0	2	n/a	3_2.gif
244.009	1	1	2	2	0.014	4	0	1_2.gif
245.009	1	4	2	4	0.006	3	0	4_2.gif
246.009	1	3	2	3	0.214	1	0	3_2.gif
247.009	1	1	2	4	0.874	4	1	1_2.gif
248.009	1	2	2	4	0.003	3	0	2_2.gif
249.009	1	3	2	1	0.212	1	1	3_2.gif
250.009	1	1	2	2	0.387	2	1	1_2.gif
251.009	1	2	2	3	0.68	3	1	2_2.gif
252.009	1	3	2	6	0	1	n/a	3_2.gif
253.009	1	4	2	2	0.21	2	1	4_2.gif
254.009	1	1	2	6	0	3	n/a	1_2.gif
255.009	1	2	2	4	0.187	4	1	2_2.gif
