onset	duration	nback_display	trial_type	response	response_time	correct_response	correct	stim_file
0	1	1	0	1	0.642	1	1	1_0.gif
1	1	3	0	3	0.628	3	1	3_0.gif
2	1	2	0	2	0.49	2	1	2_0.gif
3	1	1	0	1	0.347	1	1	1_0.gif
4	1	4	0	4	0.591	4	1	4_0.gif
5	1	1	0	1	0.386	1	1	1_0.gif
6	1	2	0	2	0.391	2	1	2_0.gif
7	1	1	0	1	0.454	1	1	1_0.gif
8	1	2	0	2	0.656	2	1	2_0.gif
9	1	3	0	3	0.552	3	1	3_0.gif
10	1	1	0	1	0.478	1	1	1_0.gif
11	1	2	0	2	0.455	2	1	2_0.gif
12	1	3	0	3	0.541	3	1	3_0.gif
13	1	1	0	1	0.609	1	1	1_0.gif
14	1	3	0	3	0.627	3	1	3_0.gif
15	1	4	0	4	0.553	4	1	4_0.gif
16	1	3	2	6	0	3	n/a	3_2.gif
17	1	4	2	6	0	4	n/a	4_2.gif
18	1	2	2	3	0.277	3	1	2_2.gif
19	1	1	2	4	0.265	4	1	1_2.gif
20	1	4	2	2	0.244	2	1	4_2.gif
21	1	1	2	1	0.247	1	1	1_2.gif
22	1	3	2	4	0.272	4	1	3_2.gif
23	1	1	2	1	0.278	1	1	1_2.gif
24	1	3	2	3	0.24	3	1	3_2.gif
25	1	1	2	1	0.293	1	1	1_2.gif
26	1	4	2	3	0.344	3	1	4_2.gif
27	1	1	2	1	0.243	1	1	1_2.gif
28	1	3	2	4	0.297	4	1	3_2.gif
29	1	2	2	1	0.293	1	1	2_2.gif
30	1	1	2	3	0.25	3	1	1_2.gif
31	1	2	2	2	0.229	2	1	2_2.gif
32.001	1	4	0	1	0.203	4	0	4_0.gif
33.001	1	3	0	3	0.619	3	1	3_0.gif
34.001	1	4	0	4	0.537	4	1	4_0.gif
35.001	1	2	0	2	0.499	2	1	2_0.gif
36.001	1	1	0	1	0.361	1	1	1_0.gif
37.001	1	2	0	2	0.489	2	1	2_0.gif
38.001	1	1	0	1	0.35	1	1	1_0.gif
39.001	1	4	0	4	0.478	4	1	4_0.gif
40.001	1	1	0	1	0.337	1	1	1_0.gif
41.001	1	3	0	3	0.424	3	1	3_0.gif
42.001	1	4	0	4	0.563	4	1	4_0.gif
43.001	1	1	0	1	0.342	1	1	1_0.gif
44.001	1	2	0	2	0.452	2	1	2_0.gif
45.001	1	4	0	4	0.499	4	1	4_0.gif
46.001	1	3	0	3	0.564	3	1	3_0.gif
47.001	1	4	0	4	0.492	4	1	4_0.gif
48.002	1	1	2	6	0	3	n/a	1_2.gif
49.002	1	3	2	6	0	4	n/a	3_2.gif
50.002	1	1	2	1	0.24	1	1	1_2.gif
51.002	1	3	2	3	0.229	3	1	3_2.gif
52.002	1	1	2	1	0.204	1	1	1_2.gif
53.002	1	2	2	3	0.268	3	1	2_2.gif
54.002	1	1	2	1	0.181	1	1	1_2.gif
55.002	1	4	2	2	0.18	2	1	4_2.gif
56.002	1	2	2	1	0.228	1	1	2_2.gif
57.002	1	4	2	4	0.243	4	1	4_2.gif
58.002	1	3	2	2	0.233	2	1	3_2.gif
59.002	1	4	2	4	0.271	4	1	4_2.gif
60.002	1	2	2	3	0.24	3	1	2_2.gif
61.002	1	1	2	4	0.261	4	1	1_2.gif
62.002	1	3	2	1	0.229	2	0	3_2.gif
63.002	1	1	2	3	0.641	1	0	1_2.gif
64.002	1	2	0	6	0	2	n/a	2_0.gif
65.002	1	1	0	2	0.286	1	0	1_0.gif
66.002	1	3	0	1	0.193	3	0	3_0.gif
67.002	1	4	0	4	0.469	4	1	4_0.gif
68.002	1	3	0	3	0.492	3	1	3_0.gif
69.002	1	4	0	4	0.55	4	1	4_0.gif
70.002	1	1	0	1	0.369	1	1	1_0.gif
71.002	1	2	0	2	0.392	2	1	2_0.gif
72.002	1	4	0	4	0.522	4	1	4_0.gif
73.002	1	3	0	3	0.526	3	1	3_0.gif
74.002	1	4	0	4	0.526	4	1	4_0.gif
75.002	1	2	0	2	0.517	2	1	2_0.gif
76.002	1	1	0	1	0.336	1	1	1_0.gif
77.002	1	3	0	3	0.366	3	1	3_0.gif
78.002	1	4	0	4	0.486	4	1	4_0.gif
79.002	1	2	0	2	0.481	2	1	2_0.gif
80.004	1	4	2	6	0	4	n/a	4_2.gif
81.004	1	3	2	6	0	2	n/a	3_2.gif
82.007	1	4	2	4	0.23	4	1	4_2.gif
83.007	1	2	2	3	0.246	3	1	2_2.gif
84.007	1	3	2	4	0.222	4	1	3_2.gif
85.007	1	1	2	2	0.33	2	1	1_2.gif
86.007	1	3	2	3	0.246	3	1	3_2.gif
87.007	1	1	2	1	0.225	1	1	1_2.gif
88.007	1	2	2	3	0.276	3	1	2_2.gif
89.007	1	1	2	1	0.14	1	1	1_2.gif
90.007	1	3	2	2	0.133	2	1	3_2.gif
91.007	1	2	2	1	0.175	1	1	2_2.gif
92.007	1	4	2	3	0.195	3	1	4_2.gif
93.007	1	2	2	2	0.181	2	1	2_2.gif
94.007	1	1	2	4	0.216	4	1	1_2.gif
95.007	1	4	2	1	0.213	2	0	4_2.gif
96.008	1	2	0	4	0.28	2	0	2_0.gif
97.008	1	3	0	2	0.013	3	0	3_0.gif
98.008	1	4	0	4	0.49	4	1	4_0.gif
99.008	1	2	0	2	0.468	2	1	2_0.gif
100.008	1	3	0	3	0.511	3	1	3_0.gif
101.008	1	4	0	4	0.581	4	1	4_0.gif
102.008	1	3	0	3	0.58	3	1	3_0.gif
103.008	1	2	0	2	0.528	2	1	2_0.gif
104.008	1	3	0	3	0.509	3	1	3_0.gif
105.008	1	1	0	1	0.426	1	1	1_0.gif
106.008	1	4	0	4	0.414	4	1	4_0.gif
107.008	1	2	0	2	0.454	2	1	2_0.gif
108.008	1	3	0	3	0.521	3	1	3_0.gif
109.008	1	1	0	1	0.333	1	1	1_0.gif
110.008	1	2	0	2	0.38	2	1	2_0.gif
111.008	1	4	0	4	0.449	4	1	4_0.gif
112.008	1	2	2	6	0	2	n/a	2_2.gif
113.008	1	3	2	6	0	4	n/a	3_2.gif
114.008	1	2	2	2	0.249	2	1	2_2.gif
115.008	1	3	2	3	0.261	3	1	3_2.gif
116.008	1	4	2	2	0.335	2	1	4_2.gif
117.008	1	3	2	3	0.253	3	1	3_2.gif
118.008	1	4	2	4	0.258	4	1	4_2.gif
119.008	1	3	2	3	0.305	3	1	3_2.gif
120.008	1	4	2	4	0.316	4	1	4_2.gif
121.008	1	1	2	1	0.524	3	0	1_2.gif
122.008	1	3	2	6	0	4	n/a	3_2.gif
123.008	1	2	2	1	0.71	1	1	2_2.gif
124.008	1	1	2	3	0.604	3	1	1_2.gif
125.008	1	4	2	2	0.352	2	1	4_2.gif
126.008	1	1	2	1	0.232	1	1	1_2.gif
127.008	1	2	2	4	0.271	4	1	2_2.gif
128.009	1	1	0	1	0.975	1	1	1_0.gif
129.009	1	4	0	1	0.013	4	0	4_0.gif
130.009	1	3	0	3	0.371	3	1	3_0.gif
131.009	1	4	0	4	0.506	4	1	4_0.gif
132.009	1	3	0	3	0.509	3	1	3_0.gif
133.009	1	2	0	2	0.521	2	1	2_0.gif
134.009	1	3	0	3	0.498	3	1	3_0.gif
135.009	1	1	0	1	0.354	1	1	1_0.gif
136.009	1	3	0	3	0.473	3	1	3_0.gif
137.009	1	2	0	2	0.513	2	1	2_0.gif
138.009	1	3	0	3	0.802	3	1	3_0.gif
139.009	1	1	0	1	0.462	1	1	1_0.gif
140.009	1	3	0	3	0.756	3	1	3_0.gif
141.009	1	1	0	1	0.783	1	1	1_0.gif
142.009	1	4	0	4	0.423	4	1	4_0.gif
143.009	1	3	0	3	0.43	3	1	3_0.gif
144.009	1	4	2	6	0	4	n/a	4_2.gif
145.009	1	1	2	4	0.819	3	0	1_2.gif
146.009	1	3	2	4	0.014	4	1	3_2.gif
147.009	1	2	2	1	0.243	1	1	2_2.gif
148.009	1	4	2	3	0.141	3	1	4_2.gif
149.009	1	1	2	2	0.246	2	1	1_2.gif
150.009	1	2	2	3	0.328	4	0	2_2.gif
151.009	1	4	2	6	0	1	n/a	4_2.gif
152.01	1	2	2	6	0	2	n/a	2_2.gif
153.01	1	4	2	4	0.12	4	1	4_2.gif
154.01	1	2	2	2	0.628	2	1	2_2.gif
155.01	1	3	2	4	0.551	4	1	3_2.gif
156.01	1	4	2	3	0.757	2	0	4_2.gif
157.01	1	3	2	2	0.94	3	0	3_2.gif
158.01	1	1	2	2	0.013	4	0	1_2.gif
159.01	1	4	2	3	0.634	3	1	4_2.gif
160.014	1	2	0	2	0.798	2	1	2_0.gif
161.015	1	4	0	2	0.013	4	0	4_0.gif
162.015	1	1	0	1	0.703	1	1	1_0.gif
163.015	1	2	0	2	0.441	2	1	2_0.gif
164.015	1	1	0	1	0.546	1	1	1_0.gif
165.015	1	2	0	2	0.433	2	1	2_0.gif
166.015	1	4	0	4	0.547	4	1	4_0.gif
167.015	1	2	0	2	0.587	2	1	2_0.gif
168.015	1	4	0	4	0.528	4	1	4_0.gif
169.015	1	1	0	1	0.46	1	1	1_0.gif
170.015	1	3	0	3	0.495	3	1	3_0.gif
171.015	1	1	0	1	0.431	1	1	1_0.gif
172.015	1	3	0	3	0.514	3	1	3_0.gif
173.015	1	2	0	2	0.558	2	1	2_0.gif
174.015	1	4	0	4	0.498	4	1	4_0.gif
175.015	1	1	0	1	0.434	1	1	1_0.gif
176.015	1	2	2	6	0	4	n/a	2_2.gif
177.015	1	3	2	2	0.927	1	0	3_2.gif
178.015	1	4	2	2	0.014	2	1	4_2.gif
179.015	1	2	2	3	0.209	3	1	2_2.gif
180.015	1	4	2	4	0.186	4	1	4_2.gif
181.015	1	3	2	2	0.09	2	1	3_2.gif
182.015	1	4	2	4	0.061	4	1	4_2.gif
183.015	1	2	2	3	0.224	3	1	2_2.gif
184.015	1	4	2	4	0.257	4	1	4_2.gif
185.015	1	2	2	2	0.22	2	1	2_2.gif
186.015	1	4	2	4	0.282	4	1	4_2.gif
187.015	1	2	2	2	0.247	2	1	2_2.gif
188.015	1	1	2	4	0.62	4	1	1_2.gif
189.015	1	3	2	1	0.38	2	0	3_2.gif
190.015	1	2	2	3	0.369	1	0	2_2.gif
191.015	1	1	2	1	0.579	3	0	1_2.gif
192.016	1	4	0	6	0	4	n/a	4_0.gif
193.016	1	1	0	1	0.869	1	1	1_0.gif
194.016	1	2	0	1	0.013	2	0	2_0.gif
195.016	1	1	0	1	0.597	1	1	1_0.gif
196.016	1	2	0	2	0.522	2	1	2_0.gif
197.016	1	3	0	3	0.65	3	1	3_0.gif
198.016	1	1	0	1	0.807	1	1	1_0.gif
199.016	1	2	0	1	0.019	2	0	2_0.gif
200.016	1	3	0	3	0.517	3	1	3_0.gif
201.016	1	1	0	1	0.431	1	1	1_0.gif
202.016	1	3	0	3	0.506	3	1	3_0.gif
203.016	1	4	0	4	0.381	4	1	4_0.gif
204.016	1	3	0	3	0.488	3	1	3_0.gif
205.016	1	4	0	4	0.509	4	1	4_0.gif
206.016	1	2	0	2	0.549	2	1	2_0.gif
207.016	1	1	0	1	0.412	1	1	1_0.gif
208.016	1	4	2	6	0	2	n/a	4_2.gif
209.016	1	1	2	6	0	1	n/a	1_2.gif
210.016	1	3	2	4	0.582	4	1	3_2.gif
211.016	1	1	2	1	0.668	1	1	1_2.gif
212.016	1	3	2	1	0.014	3	0	3_2.gif
213.016	1	1	2	3	0.014	1	0	1_2.gif
214.016	1	4	2	3	0.715	3	1	4_2.gif
215.016	1	1	2	4	0.621	1	0	1_2.gif
216.016	1	3	2	1	0.493	4	0	3_2.gif
217.016	1	2	2	3	0.335	1	0	2_2.gif
218.016	1	1	2	1	0.419	3	0	1_2.gif
219.016	1	2	2	2	0.494	2	1	2_2.gif
220.016	1	4	2	1	0.374	1	1	4_2.gif
221.016	1	3	2	4	0.5	2	0	3_2.gif
222.016	1	4	2	3	0.65	4	0	4_2.gif
223.016	1	2	2	1	0.667	3	0	2_2.gif
224.017	1	1	0	6	0	1	n/a	1_0.gif
225.017	1	2	0	2	0.87	2	1	2_0.gif
226.017	1	1	0	2	0.013	1	0	1_0.gif
227.017	1	4	0	4	0.47	4	1	4_0.gif
228.017	1	1	0	1	0.469	1	1	1_0.gif
229.017	1	3	0	3	0.531	3	1	3_0.gif
230.017	1	4	0	4	0.503	4	1	4_0.gif
231.017	1	1	0	1	0.394	1	1	1_0.gif
232.017	1	2	0	2	0.456	2	1	2_0.gif
233.017	1	4	0	4	0.449	4	1	4_0.gif
234.017	1	3	0	3	0.556	3	1	3_0.gif
235.017	1	4	0	4	0.548	4	1	4_0.gif
236.017	1	1	0	1	0.407	1	1	1_0.gif
237.017	1	3	0	3	0.585	3	1	3_0.gif
238.017	1	1	0	1	0.792	1	1	1_0.gif
239.017	1	3	0	3	0.636	3	1	3_0.gif
240.017	1	1	2	6	0	1	n/a	1_2.gif
241.017	1	2	2	6	0	3	n/a	2_2.gif
242.017	1	1	2	1	0.338	1	1	1_2.gif
243.017	1	4	2	2	0.303	2	1	4_2.gif
244.017	1	2	2	1	0.226	1	1	2_2.gif
245.017	1	4	2	4	0.239	4	1	4_2.gif
246.017	1	3	2	2	0.362	2	1	3_2.gif
247.017	1	4	2	4	0.362	4	1	4_2.gif
248.017	1	2	2	1	0.771	3	0	2_2.gif
249.017	1	1	2	2	0.609	4	0	1_2.gif
250.017	1	3	2	1	0.699	2	0	3_2.gif
251.017	1	1	2	3	0.385	1	0	1_2.gif
252.017	1	2	2	1	0.423	3	0	2_2.gif
253.017	1	1	2	2	0.396	1	0	1_2.gif
254.017	1	3	2	1	0.502	2	0	3_2.gif
255.017	1	4	2	3	0.536	1	0	4_2.gif
