onset	duration	nback_display	trial_type	response	response_time	correct_response	correct	stim_file
0	1	4	0	4	0.807	4	1	4_0.gif
1	1	3	0	4	0.003	3	0	3_0.gif
2	1	2	0	3	0.003	2	0	2_0.gif
3	1	4	0	4	0.437	4	1	4_0.gif
4	1	3	0	3	0.337	3	1	3_0.gif
5	1	2	0	2	0.404	2	1	2_0.gif
6	1	4	0	4	0.397	4	1	4_0.gif
7	1	3	0	3	0.289	3	1	3_0.gif
8	1	4	0	4	0.496	4	1	4_0.gif
9	1	1	0	1	0.487	1	1	1_0.gif
10	1	3	0	3	0.435	3	1	3_0.gif
11	1	1	0	1	0.429	1	1	1_0.gif
12	1	2	0	2	0.441	2	1	2_0.gif
13	1	3	0	3	0.378	3	1	3_0.gif
14	1	1	0	6	0	1	n/a	1_0.gif
15	1	3	0	3	0.504	3	1	3_0.gif
16	1	2	2	6	0	1	n/a	2_2.gif
17	1	1	2	6	0	3	n/a	1_2.gif
18	1	3	2	2	0.238	2	1	3_2.gif
19	1	2	2	1	0.226	1	1	2_2.gif
20	1	4	2	3	0.275	3	1	4_2.gif
21	1	1	2	2	0.378	2	1	1_2.gif
22	1	2	2	4	0.364	4	1	2_2.gif
23	1	4	2	1	0.411	1	1	4_2.gif
24	1	3	2	2	0.465	2	1	3_2.gif
25	1	1	2	4	0.511	4	1	1_2.gif
26	1	2	2	3	0.588	3	1	2_2.gif
27	1	3	2	1	0.699	1	1	3_2.gif
28	1	2	2	2	0.745	2	1	2_2.gif
29	1	4	2	3	0.919	3	1	4_2.gif
30	1	2	2	3	0.003	2	0	2_2.gif
31	1	3	2	4	0.256	4	1	3_2.gif
32	1	1	0	1	0.76	1	1	1_0.gif
33	1	2	0	1	0.003	2	0	2_0.gif
34	1	4	0	2	0.003	4	0	4_0.gif
35	1	3	0	3	0.406	3	1	3_0.gif
36	1	4	0	6	0	4	n/a	4_0.gif
37	1	3	0	3	0.529	3	1	3_0.gif
38	1	4	0	4	0.436	4	1	4_0.gif
39	1	3	0	3	0.349	3	1	3_0.gif
40	1	1	0	1	0.452	1	1	1_0.gif
41	1	2	0	2	0.432	2	1	2_0.gif
42	1	3	0	3	0.478	3	1	3_0.gif
43	1	2	0	2	0.414	2	1	2_0.gif
44	1	4	0	4	0.348	4	1	4_0.gif
45	1	3	0	3	0.362	3	1	3_0.gif
46	1	2	0	2	0.411	2	1	2_0.gif
47	1	3	0	3	0.467	3	1	3_0.gif
48	1	2	2	6	0	2	n/a	2_2.gif
49	1	1	2	6	0	3	n/a	1_2.gif
50	1	3	2	2	0.202	2	1	3_2.gif
51	1	4	2	1	0.263	1	1	4_2.gif
52	1	1	2	6	0	3	n/a	1_2.gif
53	1	3	2	4	0.738	4	1	3_2.gif
54	1	4	2	1	0.752	1	1	4_2.gif
55	1	1	2	3	0.927	3	1	1_2.gif
56	1	2	2	3	0.004	4	0	2_2.gif
57	1	3	2	4	0.004	1	0	3_2.gif
58	1	4	2	6	0	2	n/a	4_2.gif
59	1	3	2	3	0.676	3	1	3_2.gif
60	1	2	2	3	0.004	4	0	2_2.gif
61	1	4	2	3	0.344	3	1	4_2.gif
62	1	2	2	2	0.38	2	1	2_2.gif
63	1	1	2	4	0.372	4	1	1_2.gif
64.001	1	3	0	2	0.375	3	0	3_0.gif
65.001	1	4	0	3	0.003	4	0	4_0.gif
66.001	1	3	0	3	0.386	3	1	3_0.gif
67.001	1	1	0	1	0.414	1	1	1_0.gif
68.001	1	3	0	3	0.432	3	1	3_0.gif
69.001	1	4	0	4	0.481	4	1	4_0.gif
70.001	1	3	0	3	0.443	3	1	3_0.gif
71.001	1	1	0	1	0.532	1	1	1_0.gif
72.001	1	3	0	3	0.507	3	1	3_0.gif
73.001	1	4	0	4	0.446	4	1	4_0.gif
74.001	1	2	0	2	0.481	2	1	2_0.gif
75.001	1	1	0	1	0.54	1	1	1_0.gif
76.001	1	4	0	4	0.518	4	1	4_0.gif
77.001	1	1	0	1	0.632	1	1	1_0.gif
78.001	1	2	0	2	0.652	2	1	2_0.gif
79.001	1	1	0	1	0.545	1	1	1_0.gif
80.001	1	2	2	6	0	2	n/a	2_2.gif
81.001	1	4	2	6	0	1	n/a	4_2.gif
82.001	1	2	2	2	0.344	2	1	2_2.gif
83.001	1	1	2	4	0.309	4	1	1_2.gif
84.001	1	2	2	2	0.286	2	1	2_2.gif
85.001	1	3	2	1	0.292	1	1	3_2.gif
86.001	1	2	2	2	0.284	2	1	2_2.gif
87.001	1	1	2	3	0.352	3	1	1_2.gif
88.001	1	4	2	2	0.314	2	1	4_2.gif
89.001	1	1	2	1	0.281	1	1	1_2.gif
90.001	1	2	2	4	0.224	4	1	2_2.gif
91.001	1	3	2	1	0.211	1	1	3_2.gif
92.001	1	4	2	2	0.322	2	1	4_2.gif
93.001	1	2	2	3	0.369	3	1	2_2.gif
94.001	1	4	2	4	0.544	4	1	4_2.gif
95.001	1	3	2	2	0.56	2	1	3_2.gif
96.001	1	1	0	1	0.777	1	1	1_0.gif
97.001	1	2	0	1	0.003	2	0	2_0.gif
98.001	1	3	0	2	0.003	3	0	3_0.gif
99.001	1	4	0	4	0.257	4	1	4_0.gif
100.001	1	3	0	3	0.475	3	1	3_0.gif
101.001	1	2	0	2	0.439	2	1	2_0.gif
102.001	1	1	0	1	0.786	1	1	1_0.gif
103.001	1	4	0	4	0.411	4	1	4_0.gif
104.001	1	1	0	1	0.434	1	1	1_0.gif
105.001	1	3	0	3	0.443	3	1	3_0.gif
106.001	1	2	0	2	0.451	2	1	2_0.gif
107.001	1	1	0	1	0.441	1	1	1_0.gif
108.001	1	2	0	2	0.425	2	1	2_0.gif
109.001	1	4	0	4	0.511	4	1	4_0.gif
110.001	1	2	0	2	0.499	2	1	2_0.gif
111.001	1	4	0	4	0.557	4	1	4_0.gif
112.001	1	3	2	3	0.58	2	0	3_2.gif
113.001	1	1	2	6	0	4	n/a	1_2.gif
114.001	1	3	2	3	0.383	3	1	3_2.gif
115.001	1	1	2	1	0.248	1	1	1_2.gif
116.001	1	3	2	3	0.294	3	1	3_2.gif
117.001	1	1	2	1	0.211	1	1	1_2.gif
118.001	1	2	2	3	0.226	3	1	2_2.gif
119.001	1	3	2	1	0.219	1	1	3_2.gif
120.001	1	4	2	2	0.216	2	1	4_2.gif
121.001	1	3	2	3	0.161	3	1	3_2.gif
122.001	1	2	2	4	0.212	4	1	2_2.gif
123.001	1	1	2	3	0.234	3	1	1_2.gif
124.001	1	2	2	2	0.135	2	1	2_2.gif
125.001	1	3	2	1	0.114	1	1	3_2.gif
126.001	1	1	2	2	0.097	2	1	1_2.gif
127.001	1	2	2	3	0.114	3	1	2_2.gif
128.002	1	3	0	1	0.14	3	0	3_0.gif
129.002	1	2	0	3	0.003	2	0	2_0.gif
130.002	1	3	0	3	0.389	3	1	3_0.gif
131.002	1	4	0	4	0.374	4	1	4_0.gif
132.002	1	3	0	3	0.425	3	1	3_0.gif
133.002	1	2	0	2	0.364	2	1	2_0.gif
134.002	1	3	0	6	0	3	n/a	3_0.gif
135.002	1	1	0	1	0.397	1	1	1_0.gif
136.002	1	2	0	2	0.405	2	1	2_0.gif
137.002	1	1	0	1	0.432	1	1	1_0.gif
138.002	1	3	0	3	0.441	3	1	3_0.gif
139.002	1	1	0	1	0.429	1	1	1_0.gif
140.002	1	3	0	3	0.427	3	1	3_0.gif
141.002	1	1	0	1	0.371	1	1	1_0.gif
142.002	1	2	0	2	0.41	2	1	2_0.gif
143.002	1	1	0	1	0.405	1	1	1_0.gif
144.002	1	3	2	6	0	2	n/a	3_2.gif
145.002	1	1	2	6	0	1	n/a	1_2.gif
146.002	1	4	2	3	0.041	3	1	4_2.gif
147.002	1	3	2	1	0.173	1	1	3_2.gif
148.002	1	2	2	4	0.236	4	1	2_2.gif
149.002	1	1	2	3	0.195	3	1	1_2.gif
150.002	1	3	2	2	0.213	2	1	3_2.gif
151.002	1	2	2	1	0.168	1	1	2_2.gif
152.002	1	1	2	3	0.148	3	1	1_2.gif
153.002	1	2	2	2	0.213	2	1	2_2.gif
154.002	1	3	2	1	0.282	1	1	3_2.gif
155.002	1	2	2	2	0.26	2	1	2_2.gif
156.002	1	4	2	3	0.315	3	1	4_2.gif
157.002	1	1	2	2	0.434	2	1	1_2.gif
158.002	1	3	2	4	0.354	4	1	3_2.gif
159.002	1	4	2	1	0.232	1	1	4_2.gif
160.002	1	1	0	3	0.256	1	0	1_0.gif
161.002	1	3	0	1	0.003	3	0	3_0.gif
162.002	1	4	0	4	0.455	4	1	4_0.gif
163.002	1	3	0	3	0.67	3	1	3_0.gif
164.002	1	4	0	3	0.003	4	0	4_0.gif
165.002	1	2	0	4	0.003	2	0	2_0.gif
166.002	1	3	0	3	0.301	3	1	3_0.gif
167.002	1	2	0	2	0.467	2	1	2_0.gif
168.002	1	1	0	1	0.457	1	1	1_0.gif
169.002	1	3	0	3	0.401	3	1	3_0.gif
170.002	1	2	0	2	0.39	2	1	2_0.gif
171.002	1	4	0	4	0.301	4	1	4_0.gif
172.002	1	3	0	3	0.322	3	1	3_0.gif
173.002	1	4	0	4	0.431	4	1	4_0.gif
174.002	1	2	0	2	0.309	2	1	2_0.gif
175.002	1	1	0	1	0.336	1	1	1_0.gif
176.002	1	2	2	6	0	2	n/a	2_2.gif
177.002	1	4	2	6	0	1	n/a	4_2.gif
178.002	1	1	2	2	0.135	2	1	1_2.gif
179.002	1	2	2	4	0.575	4	1	2_2.gif
180.002	1	1	2	1	0.243	1	1	1_2.gif
181.002	1	3	2	2	0.076	2	1	3_2.gif
182.002	1	4	2	1	0.117	1	1	4_2.gif
183.002	1	3	2	3	0.004	3	1	3_2.gif
184.002	1	4	2	3	0.558	4	0	4_2.gif
185.002	1	1	2	4	0.602	3	0	1_2.gif
186.002	1	3	2	6	0	4	n/a	3_2.gif
187.002	1	1	2	1	0.203	1	1	1_2.gif
188.002	1	3	2	3	0.15	3	1	3_2.gif
189.002	1	2	2	1	0.152	1	1	2_2.gif
190.002	1	1	2	3	0.91	3	1	1_2.gif
191.002	1	2	2	3	0.004	2	0	2_2.gif
192.003	1	4	0	1	0.327	4	0	4_0.gif
193.003	1	2	0	2	0.377	2	1	2_0.gif
194.003	1	1	0	1	0.369	1	1	1_0.gif
195.003	1	2	0	2	0.3	2	1	2_0.gif
196.003	1	3	0	3	0.461	3	1	3_0.gif
197.003	1	1	0	1	0.481	1	1	1_0.gif
198.003	1	4	0	4	0.449	4	1	4_0.gif
199.003	1	2	0	2	0.361	2	1	2_0.gif
200.003	1	1	0	1	0.488	1	1	1_0.gif
201.003	1	4	0	4	0.347	4	1	4_0.gif
202.003	1	3	0	3	0.424	3	1	3_0.gif
203.003	1	2	0	2	0.366	2	1	2_0.gif
204.003	1	4	0	4	0.488	4	1	4_0.gif
205.003	1	3	0	3	0.497	3	1	3_0.gif
206.003	1	2	0	2	0.466	2	1	2_0.gif
207.003	1	4	0	4	0.832	4	1	4_0.gif
208.003	1	3	2	6	0	2	n/a	3_2.gif
209.003	1	4	2	6	0	4	n/a	4_2.gif
210.003	1	1	2	3	0.036	3	1	1_2.gif
211.003	1	3	2	4	0.116	4	1	3_2.gif
212.003	1	1	2	1	0.145	1	1	1_2.gif
213.003	1	2	2	3	0.186	3	1	2_2.gif
214.003	1	3	2	1	0.099	1	1	3_2.gif
215.003	1	1	2	2	0.181	2	1	1_2.gif
216.003	1	3	2	3	0.221	3	1	3_2.gif
217.003	1	2	2	1	0.256	1	1	2_2.gif
218.003	1	1	2	3	0.245	3	1	1_2.gif
219.003	1	3	2	2	0.256	2	1	3_2.gif
220.003	1	2	2	1	0.147	1	1	2_2.gif
221.003	1	4	2	3	0.287	3	1	4_2.gif
222.003	1	1	2	2	0.271	2	1	1_2.gif
223.003	1	2	2	4	0.318	4	1	2_2.gif
224.003	1	4	0	1	0.35	4	0	4_0.gif
225.003	1	3	0	4	0.003	3	0	3_0.gif
226.003	1	1	0	1	0.485	1	1	1_0.gif
227.003	1	2	0	2	0.302	2	1	2_0.gif
228.003	1	3	0	3	0.426	3	1	3_0.gif
229.003	1	2	0	2	0.434	2	1	2_0.gif
230.003	1	4	0	4	0.368	4	1	4_0.gif
231.003	1	2	0	2	0.393	2	1	2_0.gif
232.003	1	3	0	3	0.341	3	1	3_0.gif
233.003	1	1	0	1	0.31	1	1	1_0.gif
234.003	1	2	0	2	0.411	2	1	2_0.gif
235.003	1	4	0	4	0.4	4	1	4_0.gif
236.003	1	3	0	3	0.332	3	1	3_0.gif
237.003	1	4	0	4	0.366	4	1	4_0.gif
238.003	1	3	0	3	0.312	3	1	3_0.gif
239.003	1	4	0	4	0.29	4	1	4_0.gif
240.003	1	3	2	6	0	3	n/a	3_2.gif
241.003	1	1	2	6	0	4	n/a	1_2.gif
242.003	1	2	2	3	0.244	3	1	2_2.gif
243.003	1	3	2	1	0.222	1	1	3_2.gif
244.003	1	2	2	2	0.287	2	1	2_2.gif
245.003	1	4	2	3	0.25	3	1	4_2.gif
246.003	1	3	2	2	0.368	2	1	3_2.gif
247.003	1	2	2	4	0.341	4	1	2_2.gif
248.003	1	3	2	3	0.26	3	1	3_2.gif
249.003	1	2	2	2	0.23	2	1	2_2.gif
250.003	1	1	2	3	0.703	3	1	1_2.gif
251.003	1	3	2	2	0.254	2	1	3_2.gif
252.003	1	4	2	3	0.044	1	0	4_2.gif
253.003	1	1	2	3	0.004	3	1	1_2.gif
254.003	1	3	2	6	0	4	n/a	3_2.gif
255.003	1	4	2	1	0.353	1	1	4_2.gif
