onset	duration	nback_display	trial_type	response	response_time	correct_response	correct	stim_file
0	1	3	0	3	0.651	3	1	3_0.gif
1	1	1	0	1	0.691	1	1	1_0.gif
2	1	4	0	4	0.813	4	1	4_0.gif
3	1	3	0	4	0.009	3	0	3_0.gif
4.001	1	2	0	2	0.519	2	1	2_0.gif
5.001	1	3	0	3	0.443	3	1	3_0.gif
6.001	1	4	0	4	0.88	4	1	4_0.gif
7.001	1	3	0	4	0.009	3	0	3_0.gif
8.001	1	4	0	4	0.623	4	1	4_0.gif
9.001	1	1	0	1	0.693	1	1	1_0.gif
10.001	1	3	0	3	0.438	3	1	3_0.gif
11.001	1	1	0	1	0.621	1	1	1_0.gif
12.002	1	2	0	2	0.406	2	1	2_0.gif
13.002	1	3	0	3	0.45	3	1	3_0.gif
14.002	1	1	0	1	0.342	1	1	1_0.gif
15.002	1	3	0	3	0.373	3	1	3_0.gif
16.003	1	2	2	6	0	1	n/a	2_2.gif
17.003	1	1	2	2	0.702	3	0	1_2.gif
18.003	1	3	2	1	0.566	2	0	3_2.gif
19.003	1	2	2	3	0.564	1	0	2_2.gif
20.003	1	4	2	2	0.504	3	0	4_2.gif
21.003	1	3	2	4	0.4	2	0	3_2.gif
22.003	1	1	2	3	0.28	4	0	1_2.gif
23.003	1	3	2	1	0.55	3	0	3_2.gif
24.003	1	1	2	3	0.403	1	0	1_2.gif
25.003	1	3	2	1	0.386	3	0	3_2.gif
26.003	1	2	2	3	0.311	1	0	2_2.gif
27.003	1	3	2	2	0.415	3	0	3_2.gif
28.003	1	1	2	3	0.504	2	0	1_2.gif
29.003	1	2	2	1	0.397	3	0	2_2.gif
30.003	1	1	2	2	0.404	1	0	1_2.gif
31.003	1	3	2	1	0.384	2	0	3_2.gif
32.004	1	1	0	1	0.892	1	1	1_0.gif
33.004	1	2	0	1	0.008	2	0	2_0.gif
34.004	1	4	0	4	0.76	4	1	4_0.gif
35.004	1	3	0	3	0.389	3	1	3_0.gif
36.004	1	4	0	4	0.685	4	1	4_0.gif
37.004	1	3	0	3	0.386	3	1	3_0.gif
38.004	1	4	0	4	0.482	4	1	4_0.gif
39.004	1	3	0	3	0.323	3	1	3_0.gif
40.004	1	2	0	2	0.577	2	1	2_0.gif
41.004	1	3	0	3	0.494	3	1	3_0.gif
42.004	1	1	0	1	0.56	1	1	1_0.gif
43.004	1	2	0	2	0.473	2	1	2_0.gif
44.004	1	3	0	3	0.339	3	1	3_0.gif
45.004	1	4	0	4	0.64	4	1	4_0.gif
46.004	1	2	0	2	0.545	2	1	2_0.gif
47.004	1	1	0	1	0.381	1	1	1_0.gif
48.005	1	3	2	6	0	2	n/a	3_2.gif
49.005	1	2	2	6	0	1	n/a	2_2.gif
50.005	1	1	2	3	0.217	3	1	1_2.gif
51.005	1	3	2	2	0.242	2	1	3_2.gif
52.005	1	4	2	1	0.12	1	1	4_2.gif
53.005	1	1	2	3	0.009	3	1	1_2.gif
54.005	1	3	2	1	0.72	4	0	3_2.gif
55.005	1	4	2	3	0.333	1	0	4_2.gif
56.005	1	1	2	4	0.815	3	0	1_2.gif
57.005	1	2	2	1	0.833	4	0	2_2.gif
58.005	1	3	2	1	0.008	1	1	3_2.gif
59.005	1	4	2	3	0.436	2	0	4_2.gif
60.005	1	3	2	4	0.119	3	0	3_2.gif
61.005	1	2	2	3	0.459	4	0	2_2.gif
62.005	1	4	2	2	0.009	3	0	4_2.gif
63.005	1	2	2	4	0.347	2	0	2_2.gif
64.006	1	1	0	2	0.008	1	0	1_0.gif
65.006	1	3	0	1	0.01	3	0	3_0.gif
66.006	1	4	0	4	0.553	4	1	4_0.gif
67.006	1	3	0	3	0.561	3	1	3_0.gif
68.006	1	1	0	1	0.857	1	1	1_0.gif
69.006	1	3	0	1	0.009	3	0	3_0.gif
70.006	1	4	0	4	0.365	4	1	4_0.gif
71.006	1	3	0	3	0.364	3	1	3_0.gif
72.006	1	2	0	2	0.39	2	1	2_0.gif
73.006	1	4	0	4	0.681	4	1	4_0.gif
74.006	1	2	0	2	0.773	2	1	2_0.gif
75.006	1	1	0	1	0.973	1	1	1_0.gif
76.006	1	2	0	1	0.014	2	0	2_0.gif
77.006	1	3	0	3	0.543	3	1	3_0.gif
78.006	1	4	0	4	0.748	4	1	4_0.gif
79.006	1	2	0	2	0.55	2	1	2_0.gif
80.007	1	1	2	6	0	4	n/a	1_2.gif
81.007	1	2	2	2	0.849	2	1	2_2.gif
82.007	1	4	2	2	0.008	1	0	4_2.gif
83.007	1	3	2	2	0.213	2	1	3_2.gif
84.007	1	2	2	4	0.009	4	1	2_2.gif
85.007	1	4	2	2	0.728	3	0	4_2.gif
86.007	1	2	2	4	0.364	2	0	2_2.gif
87.007	1	3	2	2	0.611	4	0	3_2.gif
88.007	1	2	2	3	0.465	2	0	2_2.gif
89.007	1	4	2	2	0.269	3	0	4_2.gif
90.007	1	1	2	4	0.199	2	0	1_2.gif
91.007	1	4	2	1	0.307	4	0	4_2.gif
92.007	1	1	2	4	0.008	1	0	1_2.gif
93.007	1	3	2	1	0.317	4	0	3_2.gif
94.007	1	4	2	3	0.39	1	0	4_2.gif
95.007	1	3	2	4	0.224	3	0	3_2.gif
96.009	1	4	0	4	0.838	4	1	4_0.gif
97.009	1	3	0	4	0.009	3	0	3_0.gif
98.009	1	1	0	1	0.482	1	1	1_0.gif
99.009	1	2	0	2	0.336	2	1	2_0.gif
100.009	1	3	0	3	0.404	3	1	3_0.gif
101.009	1	4	0	4	0.473	4	1	4_0.gif
102.009	1	3	0	3	0.733	3	1	3_0.gif
103.009	1	2	0	2	0.625	2	1	2_0.gif
104.009	1	1	0	1	0.461	1	1	1_0.gif
105.009	1	2	0	2	0.468	2	1	2_0.gif
106.009	1	1	0	1	0.546	1	1	1_0.gif
107.009	1	2	0	2	0.337	2	1	2_0.gif
108.009	1	3	0	3	0.423	3	1	3_0.gif
109.009	1	1	0	1	0.349	1	1	1_0.gif
110.009	1	3	0	3	0.353	3	1	3_0.gif
111.009	1	2	0	2	0.591	2	1	2_0.gif
112.01	1	3	2	6	0	3	n/a	3_2.gif
113.01	1	2	2	3	0.649	2	0	2_2.gif
114.01	1	3	2	2	0.649	3	0	3_2.gif
115.01	1	4	2	3	0.627	2	0	4_2.gif
116.01	1	2	2	4	0.616	3	0	2_2.gif
117.01	1	4	2	2	0.511	4	0	4_2.gif
118.01	1	1	2	4	0.412	2	0	1_2.gif
119.01	1	4	2	1	0.659	4	0	4_2.gif
120.01	1	1	2	4	0.457	1	0	1_2.gif
121.01	1	3	2	1	0.651	4	0	3_2.gif
122.01	1	1	2	3	0.422	1	0	1_2.gif
123.01	1	2	2	1	0.342	3	0	2_2.gif
124.01	1	3	2	2	0.406	1	0	3_2.gif
125.01	1	2	2	3	0.168	2	0	2_2.gif
126.01	1	3	2	2	0.332	3	0	3_2.gif
127.01	1	1	2	3	0.154	2	0	1_2.gif
128.011	1	2	0	1	0.514	2	0	2_0.gif
129.011	1	3	0	2	0.534	3	0	3_0.gif
130.011	1	1	0	3	0.079	1	0	1_0.gif
131.011	1	3	0	3	0.417	3	1	3_0.gif
132.011	1	2	0	2	0.448	2	1	2_0.gif
133.011	1	3	0	3	0.354	3	1	3_0.gif
134.011	1	4	0	4	0.785	4	1	4_0.gif
135.011	1	3	0	4	0.01	3	0	3_0.gif
136.011	1	2	0	2	0.522	2	1	2_0.gif
137.011	1	1	0	1	0.957	1	1	1_0.gif
138.011	1	2	0	1	0.008	2	0	2_0.gif
139.011	1	3	0	3	0.461	3	1	3_0.gif
140.011	1	1	0	1	0.44	1	1	1_0.gif
141.011	1	2	0	2	0.348	2	1	2_0.gif
142.011	1	3	0	3	0.588	3	1	3_0.gif
143.011	1	1	0	1	0.661	1	1	1_0.gif
144.012	1	4	2	6	0	3	n/a	4_2.gif
145.012	1	1	2	1	0.832	1	1	1_2.gif
146.012	1	2	2	1	0.008	4	0	2_2.gif
147.012	1	1	2	2	0.382	1	0	1_2.gif
148.012	1	3	2	1	0.57	2	0	3_2.gif
149.012	1	1	2	3	0.056	1	0	1_2.gif
150.012	1	3	2	1	0.009	3	0	3_2.gif
151.012	1	2	2	3	0.537	1	0	2_2.gif
152.012	1	1	2	2	0.354	3	0	1_2.gif
153.012	1	2	2	1	0.51	2	0	2_2.gif
154.012	1	3	2	2	0.589	1	0	3_2.gif
155.012	1	2	2	3	0.492	2	0	2_2.gif
156.012	1	4	2	2	0.295	3	0	4_2.gif
157.012	1	1	2	4	0.269	2	0	1_2.gif
158.012	1	3	2	1	0.392	4	0	3_2.gif
159.012	1	2	2	3	0.614	1	0	2_2.gif
160.012	1	3	0	2	0.7	3	0	3_0.gif
161.012	1	4	0	3	0.12	4	0	4_0.gif
162.012	1	2	0	2	0.483	2	1	2_0.gif
163.012	1	4	0	4	0.717	4	1	4_0.gif
164.012	1	2	0	2	0.474	2	1	2_0.gif
165.012	1	3	0	3	0.486	3	1	3_0.gif
166.012	1	2	0	2	0.599	2	1	2_0.gif
167.012	1	1	0	1	0.715	1	1	1_0.gif
168.012	1	3	0	3	0.479	3	1	3_0.gif
169.012	1	2	0	2	0.699	2	1	2_0.gif
170.012	1	4	0	4	0.763	4	1	4_0.gif
171.012	1	3	0	3	0.628	3	1	3_0.gif
172.012	1	4	0	4	0.607	4	1	4_0.gif
173.012	1	3	0	3	0.553	3	1	3_0.gif
174.012	1	1	0	1	0.977	1	1	1_0.gif
175.012	1	2	0	1	0.008	2	0	2_0.gif
176.014	1	4	2	4	0.859	1	0	4_2.gif
177.014	1	2	2	4	0.009	2	0	2_2.gif
178.014	1	3	2	4	0.123	4	1	3_2.gif
179.014	1	2	2	2	0.008	2	1	2_2.gif
180.014	1	3	2	2	0.39	3	0	3_2.gif
181.014	1	1	2	3	0.236	2	0	1_2.gif
182.014	1	2	2	1	0.23	3	0	2_2.gif
183.014	1	3	2	2	0.032	1	0	3_2.gif
184.014	1	4	2	3	0.354	2	0	4_2.gif
185.014	1	3	2	3	0.009	3	1	3_2.gif
186.014	1	2	2	3	0.232	4	0	2_2.gif
187.014	1	1	2	2	0.322	3	0	1_2.gif
188.014	1	2	2	1	0.381	2	0	2_2.gif
189.014	1	4	2	2	0.323	1	0	4_2.gif
190.014	1	2	2	4	0.236	2	0	2_2.gif
191.014	1	1	2	6	0	4	n/a	1_2.gif
192.014	1	2	0	1	0.487	2	0	2_0.gif
193.014	1	3	0	2	0.032	3	0	3_0.gif
194.014	1	1	0	1	0.603	1	1	1_0.gif
195.014	1	4	0	4	0.366	4	1	4_0.gif
196.014	1	2	0	2	0.392	2	1	2_0.gif
197.014	1	1	0	1	0.538	1	1	1_0.gif
198.014	1	3	0	3	0.485	3	1	3_0.gif
199.014	1	1	0	1	0.777	1	1	1_0.gif
200.014	1	4	0	1	0.01	4	0	4_0.gif
201.014	1	3	0	3	0.578	3	1	3_0.gif
202.014	1	2	0	2	0.433	2	1	2_0.gif
203.014	1	3	0	3	0.429	3	1	3_0.gif
204.014	1	4	0	4	0.604	4	1	4_0.gif
205.014	1	3	0	3	0.442	3	1	3_0.gif
206.014	1	4	0	4	0.577	4	1	4_0.gif
207.014	1	1	0	1	0.633	1	1	1_0.gif
208.015	1	3	2	3	0.794	4	0	3_2.gif
209.015	1	1	2	3	0.712	1	0	1_2.gif
210.015	1	2	2	1	0.584	3	0	2_2.gif
211.015	1	3	2	2	0.437	1	0	3_2.gif
212.015	1	1	2	3	0.354	2	0	1_2.gif
213.015	1	3	2	1	0.409	3	0	3_2.gif
214.015	1	2	2	3	0.478	1	0	2_2.gif
215.015	1	1	2	2	0.377	3	0	1_2.gif
216.015	1	3	2	1	0.346	2	0	3_2.gif
217.015	1	2	2	3	0.293	1	0	2_2.gif
218.015	1	4	2	2	0.613	3	0	4_2.gif
219.015	1	3	2	4	0.463	2	0	3_2.gif
220.015	1	1	2	3	0.45	4	0	1_2.gif
221.015	1	3	2	3	0.009	3	1	3_2.gif
222.015	1	1	2	3	0.414	1	0	1_2.gif
223.015	1	3	2	1	0.343	3	0	3_2.gif
224.016	1	2	0	2	0.7	2	1	2_0.gif
225.016	1	3	0	3	0.373	3	1	3_0.gif
226.016	1	1	0	1	0.307	1	1	1_0.gif
227.016	1	2	0	2	0.351	2	1	2_0.gif
228.016	1	1	0	1	0.356	1	1	1_0.gif
229.016	1	3	0	3	0.353	3	1	3_0.gif
230.016	1	1	0	1	0.436	1	1	1_0.gif
231.016	1	2	0	2	0.357	2	1	2_0.gif
232.016	1	4	0	4	0.697	4	1	4_0.gif
233.016	1	3	0	3	0.57	3	1	3_0.gif
234.016	1	4	0	4	0.712	4	1	4_0.gif
235.016	1	3	0	3	0.45	3	1	3_0.gif
236.016	1	4	0	4	0.369	4	1	4_0.gif
237.016	1	3	0	3	0.285	3	1	3_0.gif
238.016	1	2	0	2	0.682	2	1	2_0.gif
239.016	1	3	0	3	0.671	3	1	3_0.gif
240.016	1	1	2	6	0	2	n/a	1_2.gif
241.016	1	2	2	1	0.689	3	0	2_2.gif
242.016	1	3	2	2	0.517	1	0	3_2.gif
243.016	1	4	2	3	0.439	2	0	4_2.gif
244.016	1	2	2	4	0.395	3	0	2_2.gif
245.016	1	1	2	2	0.424	4	0	1_2.gif
246.016	1	3	2	1	0.445	2	0	3_2.gif
247.016	1	2	2	3	0.318	1	0	2_2.gif
248.016	1	1	2	2	0.405	3	0	1_2.gif
249.016	1	3	2	1	0.404	2	0	3_2.gif
250.016	1	4	2	3	0.395	1	0	4_2.gif
251.016	1	1	2	4	0.646	3	0	1_2.gif
252.016	1	3	2	1	0.497	4	0	3_2.gif
253.016	1	4	2	3	0.404	1	0	4_2.gif
254.016	1	1	2	4	0.338	3	0	1_2.gif
255.016	1	2	2	1	0.354	4	0	2_2.gif
