onset	duration	nback_display	trial_type	response	response_time	correct_response	correct	stim_file
0	1	4	0	6	0	4	n/a	4_0.gif
1	1	3	0	4	0.024	3	0	3_0.gif
2	1	4	0	3	0.008	4	0	4_0.gif
3	1	1	0	1	0.409	1	1	1_0.gif
4	1	3	0	3	0.396	3	1	3_0.gif
5	1	2	0	2	0.483	2	1	2_0.gif
6	1	3	0	3	0.456	3	1	3_0.gif
7	1	1	0	1	0.291	1	1	1_0.gif
8	1	2	0	2	0.315	2	1	2_0.gif
9	1	3	0	3	0.373	3	1	3_0.gif
10	1	2	0	2	0.363	2	1	2_0.gif
11	1	3	0	3	0.371	3	1	3_0.gif
12	1	2	0	2	0.297	2	1	2_0.gif
13	1	4	0	4	0.437	4	1	4_0.gif
14	1	3	0	3	0.406	3	1	3_0.gif
15	1	1	0	1	0.35	1	1	1_0.gif
16	1	4	2	6	0	3	n/a	4_2.gif
17	1	2	2	6	0	1	n/a	2_2.gif
18	1	1	2	4	0.229	4	1	1_2.gif
19	1	2	2	2	0.007	2	1	2_2.gif
20	1	1	2	1	0.007	1	1	1_2.gif
21	1	2	2	2	0.007	2	1	2_2.gif
22.001	1	1	2	1	0.006	1	1	1_2.gif
23.001	1	3	2	2	0.006	2	1	3_2.gif
24.001	1	2	2	1	0.473	1	1	2_2.gif
25.001	1	3	2	2	0.073	3	0	3_2.gif
26.001	1	2	2	2	0.318	2	1	2_2.gif
27.001	1	1	2	3	0.164	3	1	1_2.gif
28.001	1	2	2	2	0.04	2	1	2_2.gif
29.001	1	3	2	1	0.114	1	1	3_2.gif
30.001	1	1	2	2	0.014	2	1	1_2.gif
31.001	1	2	2	1	0.043	3	0	2_2.gif
32.001	1	3	0	2	0.017	3	0	3_0.gif
33.003	1	4	0	3	0.007	4	0	4_0.gif
34.003	1	3	0	4	0.006	3	0	3_0.gif
35.003	1	4	0	4	0.426	4	1	4_0.gif
36.003	1	1	0	1	0.278	1	1	1_0.gif
37.003	1	3	0	3	0.458	3	1	3_0.gif
38.003	1	4	0	4	0.426	4	1	4_0.gif
39.003	1	2	0	2	0.457	2	1	2_0.gif
40.003	1	3	0	3	0.432	3	1	3_0.gif
41.003	1	2	0	2	0.324	2	1	2_0.gif
42.003	1	4	0	4	0.49	4	1	4_0.gif
43.003	1	1	0	1	0.386	1	1	1_0.gif
44.003	1	2	0	2	0.396	2	1	2_0.gif
45.003	1	3	0	3	0.386	3	1	3_0.gif
46.003	1	2	0	2	0.397	2	1	2_0.gif
47.003	1	1	0	1	0.285	1	1	1_0.gif
48.003	1	4	2	6	0	2	n/a	4_2.gif
49.003	1	3	2	6	0	1	n/a	3_2.gif
50.003	1	4	2	4	0.25	4	1	4_2.gif
51.003	1	2	2	3	0.171	3	1	2_2.gif
52.003	1	3	2	4	0.011	4	1	3_2.gif
53.003	1	1	2	3	0.007	2	0	1_2.gif
54.003	1	4	2	2	0.006	3	0	4_2.gif
55.003	1	3	2	3	0.008	1	0	3_2.gif
56.003	1	1	2	1	0.007	4	0	1_2.gif
57.003	1	2	2	4	0.006	3	0	2_2.gif
58.003	1	4	2	1	0.007	1	1	4_2.gif
59.003	1	3	2	3	0.007	2	0	3_2.gif
60.003	1	4	2	1	0.015	4	0	4_2.gif
61.003	1	3	2	6	0	3	n/a	3_2.gif
62.003	1	4	2	4	0.172	4	1	4_2.gif
63.003	1	2	2	3	0.042	3	1	2_2.gif
64.003	1	4	0	2	0.007	4	0	4_0.gif
65.004	1	1	0	4	0.624	1	0	1_0.gif
66.004	1	2	0	1	0.009	2	0	2_0.gif
67.004	1	3	0	3	0.385	3	1	3_0.gif
68.004	1	1	0	1	0.39	1	1	1_0.gif
69.004	1	2	0	2	0.339	2	1	2_0.gif
70.004	1	1	0	1	0.357	1	1	1_0.gif
71.004	1	2	0	2	0.542	2	1	2_0.gif
72.004	1	4	0	4	0.453	4	1	4_0.gif
73.004	1	1	0	1	0.3	1	1	1_0.gif
74.004	1	3	0	3	0.392	3	1	3_0.gif
75.004	1	2	0	2	0.384	2	1	2_0.gif
76.004	1	3	0	3	0.382	3	1	3_0.gif
77.004	1	4	0	4	0.428	4	1	4_0.gif
78.004	1	2	0	2	0.503	2	1	2_0.gif
79.004	1	1	0	1	0.313	1	1	1_0.gif
80.004	1	2	2	6	0	2	n/a	2_2.gif
81.004	1	3	2	2	0.742	1	0	3_2.gif
82.004	1	4	2	2	0.463	2	1	4_2.gif
83.004	1	1	2	3	0.007	3	1	1_2.gif
84.004	1	2	2	2	0.057	4	0	2_2.gif
85.004	1	3	2	6	0	1	n/a	3_2.gif
86.004	1	2	2	2	0.181	2	1	2_2.gif
87.004	1	4	2	3	0.011	3	1	4_2.gif
88.004	1	2	2	2	0.006	2	1	2_2.gif
89.004	1	4	2	4	0.02	4	1	4_2.gif
90.004	1	2	2	2	0.007	2	1	2_2.gif
91.004	1	4	2	4	0.007	4	1	4_2.gif
92.004	1	1	2	2	0.12	2	1	1_2.gif
93.004	1	3	2	4	0.022	4	1	3_2.gif
94.004	1	4	2	1	0.109	1	1	4_2.gif
95.004	1	3	2	3	0.038	3	1	3_2.gif
96.004	1	1	0	3	0.296	1	0	1_0.gif
97.004	1	4	0	4	0.009	4	1	4_0.gif
98.004	1	1	0	6	0	1	n/a	1_0.gif
99.004	1	2	0	2	0.234	2	1	2_0.gif
100.004	1	3	0	3	0.39	3	1	3_0.gif
101.004	1	4	0	4	0.463	4	1	4_0.gif
102.004	1	1	0	1	0.239	1	1	1_0.gif
103.004	1	3	0	3	0.4	3	1	3_0.gif
104.004	1	4	0	4	0.449	4	1	4_0.gif
105.004	1	2	0	2	0.413	2	1	2_0.gif
106.004	1	3	0	3	0.453	3	1	3_0.gif
107.004	1	2	0	2	0.454	2	1	2_0.gif
108.004	1	3	0	3	0.454	3	1	3_0.gif
109.004	1	1	0	1	0.417	1	1	1_0.gif
110.004	1	3	0	3	0.421	3	1	3_0.gif
111.004	1	1	0	1	0.396	1	1	1_0.gif
112.005	1	2	2	6	0	3	n/a	2_2.gif
113.005	1	1	2	6	0	1	n/a	1_2.gif
114.005	1	3	2	2	0.056	2	1	3_2.gif
115.005	1	1	2	1	0.007	1	1	1_2.gif
116.005	1	3	2	3	0.029	3	1	3_2.gif
117.005	1	2	2	1	0.007	1	1	2_2.gif
118.006	1	3	2	2	0.013	3	0	3_2.gif
119.006	1	1	2	3	0.006	2	0	1_2.gif
120.006	1	4	2	2	0.007	3	0	4_2.gif
121.006	1	1	2	3	0.075	1	0	1_2.gif
122.006	1	2	2	1	0.006	4	0	2_2.gif
123.006	1	3	2	2	0.015	1	0	3_2.gif
124.006	1	4	2	3	0.012	2	0	4_2.gif
125.006	1	1	2	4	0.166	3	0	1_2.gif
126.006	1	2	2	6	0	4	n/a	2_2.gif
127.006	1	3	2	2	0.774	1	0	3_2.gif
128.007	1	2	0	2	0.006	2	1	2_0.gif
129.008	1	3	0	3	0.396	3	1	3_0.gif
130.008	1	4	0	4	0.493	4	1	4_0.gif
131.008	1	2	0	2	0.344	2	1	2_0.gif
132.008	1	4	0	4	0.438	4	1	4_0.gif
133.008	1	2	0	2	0.334	2	1	2_0.gif
134.008	1	1	0	1	0.396	1	1	1_0.gif
135.008	1	4	0	4	0.416	4	1	4_0.gif
136.008	1	1	0	1	0.372	1	1	1_0.gif
137.008	1	3	0	3	0.393	3	1	3_0.gif
138.008	1	2	0	2	0.358	2	1	2_0.gif
139.008	1	4	0	4	0.425	4	1	4_0.gif
140.008	1	3	0	3	0.473	3	1	3_0.gif
141.008	1	1	0	1	0.706	1	1	1_0.gif
142.008	1	4	0	1	0.007	4	0	4_0.gif
143.008	1	2	0	2	0.551	2	1	2_0.gif
144.009	1	1	2	6	0	4	n/a	1_2.gif
145.009	1	3	2	6	0	2	n/a	3_2.gif
146.009	1	2	2	1	0.089	1	1	2_2.gif
147.009	1	1	2	3	0.006	3	1	1_2.gif
148.009	1	3	2	2	0.064	2	1	3_2.gif
149.009	1	2	2	1	0.005	1	1	2_2.gif
150.009	1	3	2	3	0.006	3	1	3_2.gif
151.009	1	1	2	2	0.007	2	1	1_2.gif
152.009	1	3	2	6	0	3	n/a	3_2.gif
153.009	1	4	2	6	0	1	n/a	4_2.gif
154.009	1	1	2	3	0.072	3	1	1_2.gif
155.009	1	3	2	4	0.045	4	1	3_2.gif
156.009	1	4	2	1	0.164	1	1	4_2.gif
157.009	1	3	2	3	0.061	3	1	3_2.gif
158.009	1	1	2	4	0.272	4	1	1_2.gif
159.009	1	2	2	3	0.119	3	1	2_2.gif
160.009	1	3	0	2	0.089	3	0	3_0.gif
161.009	1	2	0	3	0.007	2	0	2_0.gif
162.009	1	1	0	2	0.006	1	0	1_0.gif
163.009	1	3	0	1	0.006	3	0	3_0.gif
164.009	1	4	0	3	0.007	4	0	4_0.gif
165.009	1	1	0	4	0.006	1	0	1_0.gif
166.009	1	3	0	1	0.006	3	0	3_0.gif
167.009	1	2	0	3	0.007	2	0	2_0.gif
168.009	1	4	0	2	0.006	4	0	4_0.gif
169.009	1	1	0	4	0.006	1	0	1_0.gif
170.009	1	3	0	1	0.007	3	0	3_0.gif
171.009	1	1	0	3	0.007	1	0	1_0.gif
172.009	1	3	0	1	0.008	3	0	3_0.gif
173.009	1	1	0	3	0.006	1	0	1_0.gif
174.009	1	3	0	1	0.007	3	0	3_0.gif
175.009	1	4	0	3	0.006	4	0	4_0.gif
176.009	1	1	2	4	0.006	3	0	1_2.gif
177.009	1	2	2	6	0	4	n/a	2_2.gif
178.009	1	1	2	1	0.016	1	1	1_2.gif
179.009	1	3	2	2	0.006	2	1	3_2.gif
180.009	1	2	2	1	0.006	1	1	2_2.gif
181.009	1	3	2	3	0.007	3	1	3_2.gif
182.009	1	2	2	2	0.017	2	1	2_2.gif
183.009	1	1	2	3	0.008	3	1	1_2.gif
184.009	1	3	2	2	0.007	2	1	3_2.gif
185.009	1	1	2	1	0.063	1	1	1_2.gif
186.009	1	3	2	3	0.101	3	1	3_2.gif
187.009	1	1	2	1	0.007	1	1	1_2.gif
188.009	1	3	2	3	0.007	3	1	3_2.gif
189.009	1	1	2	1	0.006	1	1	1_2.gif
190.009	1	4	2	3	0.156	3	1	4_2.gif
191.009	1	3	2	1	0.007	1	1	3_2.gif
192.01	1	4	0	4	0.006	4	1	4_0.gif
193.01	1	1	0	4	0.169	1	0	1_0.gif
194.01	1	3	0	2	0.189	3	0	3_0.gif
195.01	1	2	0	2	0.238	2	1	2_0.gif
196.01	1	3	0	3	0.384	3	1	3_0.gif
197.01	1	1	0	1	0.385	1	1	1_0.gif
198.01	1	2	0	2	0.385	2	1	2_0.gif
199.01	1	3	0	3	0.397	3	1	3_0.gif
200.01	1	2	0	2	0.405	2	1	2_0.gif
201.01	1	3	0	3	0.396	3	1	3_0.gif
202.01	1	2	0	2	0.413	2	1	2_0.gif
203.01	1	4	0	4	0.546	4	1	4_0.gif
204.01	1	3	0	3	0.457	3	1	3_0.gif
205.01	1	1	0	1	0.386	1	1	1_0.gif
206.01	1	4	0	4	0.455	4	1	4_0.gif
207.01	1	2	0	2	0.307	2	1	2_0.gif
208.01	1	1	2	1	0.401	4	0	1_2.gif
209.01	1	2	2	6	0	2	n/a	2_2.gif
210.01	1	1	2	1	0.137	1	1	1_2.gif
211.01	1	2	2	2	0.007	2	1	2_2.gif
212.01	1	1	2	1	0.007	1	1	1_2.gif
213.01	1	3	2	2	0.007	2	1	3_2.gif
214.01	1	2	2	1	0.006	1	1	2_2.gif
215.01	1	3	2	2	0.009	3	0	3_2.gif
216.01	1	2	2	3	0.007	2	0	2_2.gif
217.01	1	1	2	2	0.006	3	0	1_2.gif
218.01	1	2	2	3	0.006	2	0	2_2.gif
219.01	1	3	2	2	0.007	1	0	3_2.gif
220.01	1	1	2	1	0.006	2	0	1_2.gif
221.01	1	2	2	2	0.006	3	0	2_2.gif
222.01	1	3	2	3	0.036	1	0	3_2.gif
223.01	1	4	2	2	0.015	2	1	4_2.gif
224.01	1	3	0	1	0.007	3	0	3_0.gif
225.01	1	4	0	4	0.008	4	1	4_0.gif
226.01	1	1	0	1	0.216	1	1	1_0.gif
227.01	1	3	0	3	0.36	3	1	3_0.gif
228.01	1	4	0	4	0.471	4	1	4_0.gif
229.01	1	2	0	2	0.356	2	1	2_0.gif
230.01	1	3	0	3	0.438	3	1	3_0.gif
231.01	1	2	0	2	0.373	2	1	2_0.gif
232.01	1	4	0	4	0.426	4	1	4_0.gif
233.01	1	1	0	1	0.42	1	1	1_0.gif
234.01	1	2	0	2	0.422	2	1	2_0.gif
235.011	1	3	0	3	0.336	3	1	3_0.gif
236.011	1	2	0	2	0.409	2	1	2_0.gif
237.011	1	1	0	1	0.411	1	1	1_0.gif
238.011	1	4	0	4	0.434	4	1	4_0.gif
239.011	1	3	0	3	0.454	3	1	3_0.gif
240.011	1	4	2	6	0	4	n/a	4_2.gif
241.011	1	2	2	4	0.169	3	0	2_2.gif
242.011	1	3	2	4	0.069	4	1	3_2.gif
243.011	1	1	2	3	0.171	2	0	1_2.gif
244.011	1	4	2	6	0	3	n/a	4_2.gif
245.011	1	3	2	1	0.197	1	1	3_2.gif
246.013	1	1	2	4	0.007	4	1	1_2.gif
247.013	1	2	2	6	0	3	n/a	2_2.gif
248.013	1	4	2	6	0	1	n/a	4_2.gif
249.013	1	3	2	6	0	2	n/a	3_2.gif
250.013	1	4	2	4	0.039	4	1	4_2.gif
251.013	1	3	2	2	0.046	3	0	3_2.gif
252.013	1	4	2	4	0.007	4	1	4_2.gif
253.013	1	2	2	3	0.084	3	1	2_2.gif
254.013	1	4	2	2	0.232	4	0	4_2.gif
255.013	1	1	2	6	0	2	n/a	1_2.gif
