onset	duration	nback_display	trial_type	response	response_time	correct_response	correct	stim_file
0	1	1	0	1	0.649	1	1	1_0.gif
1	1	3	0	3	0.601	3	1	3_0.gif
2	1	1	0	1	0.553	1	1	1_0.gif
3	1	3	0	3	0.51	3	1	3_0.gif
4	1	1	0	1	0.544	1	1	1_0.gif
5	1	2	0	6	0	2	n/a	2_0.gif
6.022	1	4	0	4	0.502	4	1	4_0.gif
7.022	1	2	0	2	0.666	2	1	2_0.gif
8.022	1	3	0	2	0.009	3	0	3_0.gif
9.022	1	2	0	3	0.01	2	0	2_0.gif
10.024	1	3	0	2	0.01	3	0	3_0.gif
11.024	1	4	0	3	0.01	4	0	4_0.gif
12.024	1	3	0	4	0.01	3	0	3_0.gif
13.024	1	4	0	3	0.009	4	0	4_0.gif
14.024	1	3	0	3	0.771	3	1	3_0.gif
15.024	1	1	0	3	0.01	1	0	1_0.gif
16.026	1	4	2	6	0	3	n/a	4_2.gif
17.026	1	1	2	6	0	1	n/a	1_2.gif
18.026	1	3	2	4	0.576	4	1	3_2.gif
19.026	1	4	2	1	0.413	1	1	4_2.gif
20.026	1	2	2	3	0.729	3	1	2_2.gif
21.026	1	3	2	6	0	4	n/a	3_2.gif
22.026	1	2	2	4	0.21	2	0	2_2.gif
23.026	1	3	2	2	0.009	3	0	3_2.gif
24.026	1	4	2	6	0	2	n/a	4_2.gif
25.026	1	1	2	6	0	3	n/a	1_2.gif
26.026	1	2	2	4	0.669	4	1	2_2.gif
27.026	1	4	2	1	0.852	1	1	4_2.gif
28.026	1	1	2	1	0.009	2	0	1_2.gif
29.026	1	3	2	2	0.009	4	0	3_2.gif
30.026	1	4	2	4	0.01	1	0	4_2.gif
31.026	1	2	2	1	0.009	3	0	2_2.gif
32.027	1	3	0	3	0.016	3	1	3_0.gif
33.027	1	1	0	3	0.156	1	0	1_0.gif
34.027	1	2	0	2	0.431	2	1	2_0.gif
35.027	1	1	0	1	0.456	1	1	1_0.gif
36.027	1	2	0	2	0.402	2	1	2_0.gif
37.027	1	4	0	4	0.531	4	1	4_0.gif
38.027	1	3	0	3	0.46	3	1	3_0.gif
39.027	1	4	0	4	0.585	4	1	4_0.gif
40.027	1	1	0	1	0.69	1	1	1_0.gif
41.027	1	2	0	2	0.877	2	1	2_0.gif
42.027	1	1	0	2	0.009	1	0	1_0.gif
43.027	1	3	0	3	0.648	3	1	3_0.gif
44.027	1	4	0	4	0.55	4	1	4_0.gif
45.027	1	3	0	3	0.569	3	1	3_0.gif
46.027	1	2	0	2	0.696	2	1	2_0.gif
47.027	1	1	0	2	0.012	1	0	1_0.gif
48.03	1	2	2	2	0.618	2	1	2_2.gif
49.03	1	1	2	6	0	1	n/a	1_2.gif
50.03	1	4	2	6	0	2	n/a	4_2.gif
51.03	1	1	2	2	0.016	1	0	1_2.gif
52.03	1	2	2	1	0.01	4	0	2_2.gif
53.03	1	1	2	4	0.134	1	0	1_2.gif
54.03	1	4	2	1	0.321	2	0	4_2.gif
55.03	1	2	2	2	0.009	1	0	2_2.gif
56.03	1	3	2	6	0	4	n/a	3_2.gif
57.03	1	2	2	6	0	2	n/a	2_2.gif
58.03	1	1	2	3	0.634	3	1	1_2.gif
59.03	1	4	2	2	0.893	2	1	4_2.gif
60.03	1	1	2	2	0.009	1	0	1_2.gif
61.03	1	3	2	1	0.009	4	0	3_2.gif
62.03	1	1	2	4	0.01	1	0	1_2.gif
63.03	1	4	2	3	0.689	3	1	4_2.gif
64.032	1	2	0	3	0.011	2	0	2_0.gif
65.032	1	3	0	2	0.014	3	0	3_0.gif
66.032	1	2	0	2	0.912	2	1	2_0.gif
67.032	1	4	0	2	0.01	4	0	4_0.gif
68.032	1	3	0	4	0.069	3	0	3_0.gif
69.032	1	4	0	4	0.578	4	1	4_0.gif
70.032	1	1	0	1	0.473	1	1	1_0.gif
71.032	1	2	0	2	0.55	2	1	2_0.gif
72.032	1	4	0	4	0.525	4	1	4_0.gif
73.032	1	3	0	3	0.588	3	1	3_0.gif
74.032	1	2	0	2	0.605	2	1	2_0.gif
75.032	1	1	0	1	0.468	1	1	1_0.gif
76.032	1	3	0	3	0.557	3	1	3_0.gif
77.032	1	4	0	4	0.634	4	1	4_0.gif
78.032	1	3	0	4	0.01	3	0	3_0.gif
79.032	1	4	0	3	0.01	4	0	4_0.gif
80.033	1	3	2	3	0.92	3	1	3_2.gif
81.033	1	2	2	3	0.017	4	0	2_2.gif
82.033	1	3	2	3	0.01	3	1	3_2.gif
83.033	1	2	2	3	0.011	2	0	2_2.gif
84.033	1	3	2	2	0.036	3	0	3_2.gif
85.033	1	1	2	3	0.154	2	0	1_2.gif
86.033	1	3	2	1	0.245	3	0	3_2.gif
87.033	1	4	2	6	0	1	n/a	4_2.gif
88.034	1	1	2	6	0	3	n/a	1_2.gif
89.034	1	4	2	1	0.634	4	0	4_2.gif
90.034	1	2	2	6	0	1	n/a	2_2.gif
91.034	1	4	2	4	0.037	4	1	4_2.gif
92.034	1	1	2	2	0.273	2	1	1_2.gif
93.034	1	2	2	6	0	4	n/a	2_2.gif
94.034	1	3	2	1	0.76	1	1	3_2.gif
95.034	1	2	2	2	0.652	2	1	2_2.gif
96.036	1	1	0	2	0.009	1	0	1_0.gif
97.036	1	3	0	1	0.009	3	0	3_0.gif
98.036	1	2	0	3	0.01	2	0	2_0.gif
99.036	1	3	0	2	0.011	3	0	3_0.gif
100.036	1	1	0	3	0.01	1	0	1_0.gif
101.036	1	4	0	1	0.009	4	0	4_0.gif
102.036	1	1	0	1	0.876	1	1	1_0.gif
103.036	1	4	0	1	0.009	4	0	4_0.gif
104.036	1	3	0	4	0.01	3	0	3_0.gif
105.036	1	4	0	3	0.011	4	0	4_0.gif
106.036	1	2	0	2	0.521	2	1	2_0.gif
107.036	1	4	0	4	0.587	4	1	4_0.gif
108.036	1	2	0	2	0.457	2	1	2_0.gif
109.036	1	3	0	3	0.561	3	1	3_0.gif
110.036	1	2	0	2	0.542	2	1	2_0.gif
111.036	1	4	0	4	0.471	4	1	4_0.gif
112.038	1	2	2	6	0	2	n/a	2_2.gif
113.038	1	4	2	6	0	4	n/a	4_2.gif
114.038	1	3	2	2	0.685	2	1	3_2.gif
115.038	1	4	2	4	0.73	4	1	4_2.gif
116.038	1	1	2	4	0.01	3	0	1_2.gif
117.038	1	2	2	3	0.009	4	0	2_2.gif
118.038	1	3	2	4	0.01	1	0	3_2.gif
119.038	1	4	2	2	0.055	2	1	4_2.gif
120.038	1	3	2	1	0.406	3	0	3_2.gif
121.038	1	2	2	3	0.335	4	0	2_2.gif
122.038	1	1	2	4	0.41	3	0	1_2.gif
123.038	1	4	2	2	0.229	2	1	4_2.gif
124.038	1	3	2	1	0.244	1	1	3_2.gif
125.038	1	1	2	4	0.435	4	1	1_2.gif
126.038	1	2	2	3	0.418	3	1	2_2.gif
127.038	1	1	2	1	0.362	1	1	1_2.gif
128.04	1	3	0	3	0.801	3	1	3_0.gif
129.04	1	1	0	3	0.01	1	0	1_0.gif
130.04	1	3	0	1	0.009	3	0	3_0.gif
131.04	1	1	0	3	0.009	1	0	1_0.gif
132.04	1	2	0	1	0.008	2	0	2_0.gif
133.04	1	3	0	2	0.055	3	0	3_0.gif
134.04	1	4	0	3	0.18	4	0	4_0.gif
135.04	1	2	0	4	0.179	2	0	2_0.gif
136.04	1	3	0	2	0.226	3	0	3_0.gif
137.04	1	2	0	3	0.28	2	0	2_0.gif
138.04	1	3	0	2	0.359	3	0	3_0.gif
139.04	1	1	0	3	0.016	1	0	1_0.gif
140.04	1	4	0	4	0.427	4	1	4_0.gif
141.04	1	3	0	3	0.436	3	1	3_0.gif
142.04	1	4	0	4	0.431	4	1	4_0.gif
143.04	1	1	0	1	0.393	1	1	1_0.gif
144.041	1	3	2	6	0	4	n/a	3_2.gif
145.041	1	2	2	6	0	1	n/a	2_2.gif
146.041	1	4	2	3	0.454	3	1	4_2.gif
147.041	1	1	2	2	0.35	2	1	1_2.gif
148.041	1	2	2	4	0.363	4	1	2_2.gif
149.041	1	4	2	1	0.436	1	1	4_2.gif
150.041	1	1	2	2	0.443	2	1	1_2.gif
151.041	1	4	2	4	0.513	4	1	4_2.gif
152.041	1	2	2	1	0.652	1	1	2_2.gif
153.041	1	3	2	2	0.785	4	0	3_2.gif
154.041	1	4	2	2	0.01	2	1	4_2.gif
155.041	1	3	2	3	0.043	3	1	3_2.gif
156.041	1	4	2	4	0.406	4	1	4_2.gif
157.041	1	1	2	3	0.01	3	1	1_2.gif
158.041	1	4	2	6	0	4	n/a	4_2.gif
159.041	1	1	2	1	0.367	1	1	1_2.gif
160.042	1	3	0	4	0.208	3	0	3_0.gif
161.042	1	2	0	3	0.01	2	0	2_0.gif
162.042	1	1	0	1	0.297	1	1	1_0.gif
163.042	1	4	0	4	0.451	4	1	4_0.gif
164.042	1	1	0	1	0.436	1	1	1_0.gif
165.042	1	4	0	4	0.533	4	1	4_0.gif
166.042	1	1	0	1	0.49	1	1	1_0.gif
167.042	1	2	0	2	0.584	2	1	2_0.gif
168.042	1	3	0	2	0.01	3	0	3_0.gif
169.042	1	2	0	2	0.634	2	1	2_0.gif
170.042	1	4	0	2	0.009	4	0	4_0.gif
171.042	1	1	0	4	0.01	1	0	1_0.gif
172.042	1	4	0	4	0.602	4	1	4_0.gif
173.042	1	2	0	4	0.009	2	0	2_0.gif
174.042	1	3	0	3	0.652	3	1	3_0.gif
175.042	1	4	0	3	0.009	4	0	4_0.gif
176.043	1	2	2	6	0	3	n/a	2_2.gif
177.043	1	4	2	6	0	4	n/a	4_2.gif
178.043	1	2	2	2	0.494	2	1	2_2.gif
179.043	1	4	2	4	0.227	4	1	4_2.gif
180.043	1	2	2	2	0.268	2	1	2_2.gif
181.043	1	4	2	4	0.199	4	1	4_2.gif
182.043	1	2	2	2	0.277	2	1	2_2.gif
183.043	1	1	2	4	0.228	4	1	1_2.gif
184.043	1	3	2	2	0.78	2	1	3_2.gif
185.043	1	1	2	1	0.164	1	1	1_2.gif
186.043	1	3	2	6	0	3	n/a	3_2.gif
187.043	1	1	2	1	0.54	1	1	1_2.gif
188.043	1	2	2	3	0.348	3	1	2_2.gif
189.043	1	4	2	1	0.307	1	1	4_2.gif
190.043	1	2	2	2	0.472	2	1	2_2.gif
191.043	1	3	2	4	0.403	4	1	3_2.gif
192.045	1	2	0	2	0.362	2	1	2_0.gif
193.045	1	3	0	2	0.009	3	0	3_0.gif
194.045	1	4	0	4	0.43	4	1	4_0.gif
195.045	1	3	0	3	0.506	3	1	3_0.gif
196.045	1	4	0	4	0.505	4	1	4_0.gif
197.045	1	3	0	3	0.456	3	1	3_0.gif
198.045	1	1	0	1	0.38	1	1	1_0.gif
199.045	1	4	0	4	0.514	4	1	4_0.gif
200.045	1	1	0	1	0.452	1	1	1_0.gif
201.045	1	3	0	3	0.52	3	1	3_0.gif
202.045	1	4	0	4	0.506	4	1	4_0.gif
203.045	1	2	0	2	0.603	2	1	2_0.gif
204.045	1	3	0	3	0.583	3	1	3_0.gif
205.045	1	2	0	2	0.606	2	1	2_0.gif
206.045	1	3	0	2	0.009	3	0	3_0.gif
207.045	1	4	0	4	0.7	4	1	4_0.gif
208.047	1	1	2	6	0	3	n/a	1_2.gif
209.047	1	2	2	6	0	4	n/a	2_2.gif
210.047	1	4	2	1	0.26	1	1	4_2.gif
211.047	1	1	2	2	0.094	2	1	1_2.gif
212.047	1	3	2	4	0.093	4	1	3_2.gif
213.047	1	4	2	1	0.322	1	1	4_2.gif
214.047	1	2	2	3	0.23	3	1	2_2.gif
215.047	1	3	2	4	0.166	4	1	3_2.gif
216.047	1	1	2	2	0.056	2	1	1_2.gif
217.047	1	2	2	3	0.242	3	1	2_2.gif
218.047	1	1	2	1	0.167	1	1	1_2.gif
219.047	1	2	2	2	0.141	2	1	2_2.gif
220.047	1	4	2	1	0.128	1	1	4_2.gif
221.047	1	3	2	2	0.117	2	1	3_2.gif
222.047	1	4	2	4	0.009	4	1	4_2.gif
223.047	1	1	2	3	0.008	3	1	1_2.gif
224.048	1	2	0	4	0.008	2	0	2_0.gif
225.048	1	1	0	2	0.008	1	0	1_0.gif
226.048	1	3	0	1	0.01	3	0	3_0.gif
227.048	1	4	0	3	0.009	4	0	4_0.gif
228.048	1	3	0	4	0.009	3	0	3_0.gif
229.048	1	2	0	2	0.492	2	1	2_0.gif
230.048	1	1	0	2	0.009	1	0	1_0.gif
231.048	1	2	0	2	0.632	2	1	2_0.gif
232.048	1	1	0	1	0.432	1	1	1_0.gif
233.048	1	4	0	4	0.585	4	1	4_0.gif
234.048	1	1	0	1	0.371	1	1	1_0.gif
235.048	1	2	0	2	0.409	2	1	2_0.gif
236.048	1	1	0	1	0.411	1	1	1_0.gif
237.048	1	4	0	4	0.523	4	1	4_0.gif
238.048	1	2	0	2	0.422	2	1	2_0.gif
239.048	1	3	0	3	0.556	3	1	3_0.gif
240.049	1	2	2	2	0.483	2	1	2_2.gif
241.049	1	1	2	6	0	3	n/a	1_2.gif
242.049	1	4	2	2	0.57	2	1	4_2.gif
243.049	1	1	2	1	0.416	1	1	1_2.gif
244.049	1	3	2	4	0.35	4	1	3_2.gif
245.049	1	1	2	1	0.261	1	1	1_2.gif
246.049	1	4	2	3	0.149	3	1	4_2.gif
247.049	1	2	2	1	0.298	1	1	2_2.gif
248.049	1	3	2	4	0.239	4	1	3_2.gif
249.049	1	2	2	2	0.207	2	1	2_2.gif
250.049	1	4	2	3	0.323	3	1	4_2.gif
251.049	1	3	2	2	0.029	2	1	3_2.gif
252.049	1	4	2	4	0.085	4	1	4_2.gif
253.049	1	1	2	3	0.019	3	1	1_2.gif
254.049	1	2	2	4	0.009	4	1	2_2.gif
255.049	1	4	2	1	0.011	1	1	4_2.gif
