onset	duration	nback_display	trial_type	response	response_time	correct_response	correct	stim_file
0	1	2	0	2	0.829	2	1	2_0.gif
1	1	3	0	2	0.006	3	0	3_0.gif
2	1	2	0	2	0.485	2	1	2_0.gif
3	1	3	0	3	0.475	3	1	3_0.gif
4	1	2	0	2	0.351	2	1	2_0.gif
5	1	3	0	3	0.351	3	1	3_0.gif
6	1	1	0	1	0.443	1	1	1_0.gif
7	1	2	0	2	0.343	2	1	2_0.gif
8	1	3	0	3	0.384	3	1	3_0.gif
9	1	1	0	1	0.362	1	1	1_0.gif
10	1	3	0	3	0.427	3	1	3_0.gif
11	1	4	0	4	0.515	4	1	4_0.gif
12	1	1	0	1	0.426	1	1	1_0.gif
13	1	4	0	4	0.38	4	1	4_0.gif
14	1	1	0	1	0.387	1	1	1_0.gif
15	1	4	0	4	0.559	4	1	4_0.gif
16	1	3	2	6	0	1	n/a	3_2.gif
17	1	1	2	6	0	4	n/a	1_2.gif
18	1	4	2	3	0.163	3	1	4_2.gif
19	1	2	2	1	0.164	1	1	2_2.gif
20	1	3	2	4	0.125	4	1	3_2.gif
21	1	1	2	2	0.138	2	1	1_2.gif
22	1	3	2	3	0.377	3	1	3_2.gif
23	1	4	2	1	0.007	1	1	4_2.gif
24	1	3	2	3	0.006	3	1	3_2.gif
25	1	4	2	4	0.006	4	1	4_2.gif
26	1	1	2	6	0	3	n/a	1_2.gif
27	1	2	2	1	0.894	4	0	2_2.gif
28	1	3	2	1	0.007	1	1	3_2.gif
29	1	4	2	2	0.006	2	1	4_2.gif
30	1	1	2	3	0.096	3	1	1_2.gif
31	1	4	2	4	0.093	4	1	4_2.gif
32	1	2	0	1	0.329	2	0	2_0.gif
33	1	3	0	3	0.364	3	1	3_0.gif
34	1	1	0	1	0.337	1	1	1_0.gif
35	1	4	0	4	0.441	4	1	4_0.gif
36	1	3	0	3	0.433	3	1	3_0.gif
37	1	2	0	2	0.413	2	1	2_0.gif
38	1	3	0	3	0.411	3	1	3_0.gif
39	1	2	0	2	0.352	2	1	2_0.gif
40	1	1	0	1	0.372	1	1	1_0.gif
41	1	2	0	2	0.397	2	1	2_0.gif
42	1	4	0	4	0.376	4	1	4_0.gif
43	1	1	0	1	0.382	1	1	1_0.gif
44	1	3	0	3	0.507	3	1	3_0.gif
45	1	2	0	2	0.396	2	1	2_0.gif
46	1	4	0	4	0.387	4	1	4_0.gif
47	1	1	0	1	0.359	1	1	1_0.gif
48	1	4	2	6	0	4	n/a	4_2.gif
49	1	3	2	6	0	1	n/a	3_2.gif
50	1	2	2	4	0.125	4	1	2_2.gif
51	1	1	2	3	0.007	3	1	1_2.gif
52	1	2	2	2	0.007	2	1	2_2.gif
53	1	3	2	2	0.626	1	0	3_2.gif
54	1	4	2	6	0	2	n/a	4_2.gif
55	1	2	2	6	0	3	n/a	2_2.gif
56	1	3	2	2	0.73	4	0	3_2.gif
57	1	2	2	4	0.427	2	0	2_2.gif
58	1	1	2	6	0	3	n/a	1_2.gif
59	1	3	2	6	0	2	n/a	3_2.gif
60	1	4	2	1	0.089	1	1	4_2.gif
61	1	3	2	3	0.007	3	1	3_2.gif
62	1	1	2	4	0.136	4	1	1_2.gif
63	1	2	2	3	0.245	3	1	2_2.gif
64.001	1	1	0	1	0.156	1	1	1_0.gif
65.001	1	2	0	2	0.412	2	1	2_0.gif
66.001	1	4	0	4	0.344	4	1	4_0.gif
67.001	1	2	0	2	0.398	2	1	2_0.gif
68.001	1	3	0	3	0.34	3	1	3_0.gif
69.001	1	2	0	2	0.384	2	1	2_0.gif
70.001	1	3	0	3	0.32	3	1	3_0.gif
71.001	1	4	0	4	0.405	4	1	4_0.gif
72.001	1	1	0	1	0.394	1	1	1_0.gif
73.001	1	4	0	4	0.442	4	1	4_0.gif
74.001	1	2	0	2	0.335	2	1	2_0.gif
75.001	1	3	0	3	0.378	3	1	3_0.gif
76.001	1	1	0	1	0.395	1	1	1_0.gif
77.001	1	4	0	4	0.431	4	1	4_0.gif
78.001	1	2	0	2	0.403	2	1	2_0.gif
79.001	1	4	0	4	0.426	4	1	4_0.gif
80.001	1	2	2	6	0	2	n/a	2_2.gif
81.001	1	1	2	6	0	4	n/a	1_2.gif
82.001	1	3	2	2	0.025	2	1	3_2.gif
83.001	1	4	2	1	0.006	1	1	4_2.gif
84.001	1	2	2	3	0.124	3	1	2_2.gif
85.001	1	4	2	4	0.135	4	1	4_2.gif
86.001	1	2	2	2	0.08	2	1	2_2.gif
87.001	1	3	2	4	0.179	4	1	3_2.gif
88.001	1	1	2	1	0.548	2	0	1_2.gif
89.001	1	2	2	6	0	3	n/a	2_2.gif
90.001	1	1	2	6	0	1	n/a	1_2.gif
91.001	1	4	2	2	0.142	2	1	4_2.gif
92.001	1	3	2	1	0.079	1	1	3_2.gif
93.001	1	2	2	4	0.18	4	1	2_2.gif
94.001	1	1	2	3	0.26	3	1	1_2.gif
95.001	1	3	2	2	0.261	2	1	3_2.gif
96.001	1	1	0	1	0.232	1	1	1_0.gif
97.001	1	3	0	3	0.504	3	1	3_0.gif
98.001	1	1	0	1	0.427	1	1	1_0.gif
99.001	1	4	0	4	0.366	4	1	4_0.gif
100.001	1	3	0	3	0.377	3	1	3_0.gif
101.001	1	4	0	4	0.446	4	1	4_0.gif
102.001	1	2	0	2	0.33	2	1	2_0.gif
103.001	1	4	0	4	0.351	4	1	4_0.gif
104.001	1	1	0	1	0.436	1	1	1_0.gif
105.001	1	2	0	2	0.397	2	1	2_0.gif
106.001	1	4	0	4	0.336	4	1	4_0.gif
107.001	1	1	0	1	0.522	1	1	1_0.gif
108.001	1	4	0	4	0.447	4	1	4_0.gif
109.001	1	2	0	2	0.425	2	1	2_0.gif
110.001	1	3	0	6	0	3	n/a	3_0.gif
111.001	1	1	0	1	0.613	1	1	1_0.gif
112.001	1	3	2	6	0	3	n/a	3_2.gif
113.001	1	4	2	3	0.976	1	0	4_2.gif
114.001	1	3	2	3	0.007	3	1	3_2.gif
115.001	1	1	2	4	0.007	4	1	1_2.gif
116.001	1	3	2	6	0	3	n/a	3_2.gif
117.001	1	1	2	1	0.219	1	1	1_2.gif
118.001	1	4	2	3	0.058	3	1	4_2.gif
119.001	1	1	2	1	0.054	1	1	1_2.gif
120.001	1	4	2	4	0.076	4	1	4_2.gif
121.001	1	2	2	6	0	1	n/a	2_2.gif
122.001	1	3	2	1	0.045	4	0	3_2.gif
123.001	1	4	2	6	0	2	n/a	4_2.gif
124.001	1	1	2	3	0.027	3	1	1_2.gif
125.001	1	3	2	4	0.007	4	1	3_2.gif
126.001	1	4	2	1	0.155	1	1	4_2.gif
127.001	1	3	2	6	0	3	n/a	3_2.gif
128.002	1	1	0	1	0.525	1	1	1_0.gif
129.002	1	2	0	2	0.263	2	1	2_0.gif
130.002	1	4	0	4	0.361	4	1	4_0.gif
131.002	1	1	0	1	0.402	1	1	1_0.gif
132.002	1	2	0	2	0.43	2	1	2_0.gif
133.002	1	3	0	3	0.401	3	1	3_0.gif
134.002	1	2	0	2	0.359	2	1	2_0.gif
135.002	1	4	0	4	0.336	4	1	4_0.gif
136.002	1	1	0	1	0.271	1	1	1_0.gif
137.002	1	4	0	4	0.46	4	1	4_0.gif
138.002	1	1	0	1	0.343	1	1	1_0.gif
139.002	1	4	0	4	0.388	4	1	4_0.gif
140.002	1	1	0	1	0.341	1	1	1_0.gif
141.002	1	3	0	3	0.47	3	1	3_0.gif
142.002	1	2	0	2	0.45	2	1	2_0.gif
143.002	1	4	0	4	0.406	4	1	4_0.gif
144.002	1	3	2	6	0	2	n/a	3_2.gif
145.002	1	1	2	3	0.979	4	0	1_2.gif
146.002	1	4	2	3	0.006	3	1	4_2.gif
147.002	1	2	2	1	0.006	1	1	2_2.gif
148.002	1	1	2	2	0.04	4	0	1_2.gif
149.002	1	3	2	6	0	2	n/a	3_2.gif
150.002	1	1	2	3	0.944	1	0	1_2.gif
151.002	1	4	2	3	0.007	3	1	4_2.gif
152.002	1	3	2	1	0.022	1	1	3_2.gif
153.002	1	4	2	4	0.224	4	1	4_2.gif
154.002	1	2	2	3	0.258	3	1	2_2.gif
155.002	1	3	2	4	0.031	4	1	3_2.gif
156.002	1	1	2	2	0.65	2	1	1_2.gif
157.002	1	2	2	6	0	3	n/a	2_2.gif
158.002	1	3	2	6	0	1	n/a	3_2.gif
159.002	1	1	2	3	0.985	2	0	1_2.gif
160.002	1	3	0	3	0.007	3	1	3_0.gif
161.002	1	1	0	1	0.274	1	1	1_0.gif
162.002	1	3	0	3	0.271	3	1	3_0.gif
163.002	1	4	0	4	0.425	4	1	4_0.gif
164.002	1	1	0	1	0.46	1	1	1_0.gif
165.002	1	4	0	4	0.393	4	1	4_0.gif
166.002	1	3	0	3	0.419	3	1	3_0.gif
167.002	1	1	0	1	0.392	1	1	1_0.gif
168.002	1	2	0	2	0.341	2	1	2_0.gif
169.002	1	1	0	1	0.384	1	1	1_0.gif
170.002	1	2	0	2	0.418	2	1	2_0.gif
171.002	1	1	0	1	0.25	1	1	1_0.gif
172.002	1	3	0	3	0.4	3	1	3_0.gif
173.002	1	4	0	4	0.333	4	1	4_0.gif
174.002	1	2	0	2	0.39	2	1	2_0.gif
175.002	1	4	0	4	0.446	4	1	4_0.gif
176.002	1	1	2	6	0	2	n/a	1_2.gif
177.002	1	3	2	6	0	4	n/a	3_2.gif
178.002	1	2	2	1	0.021	1	1	2_2.gif
179.002	1	3	2	3	0.007	3	1	3_2.gif
180.002	1	1	2	1	0.032	2	0	1_2.gif
181.002	1	2	2	3	0.169	3	1	2_2.gif
182.002	1	3	2	6	0	1	n/a	3_2.gif
183.002	1	4	2	2	0.255	2	1	4_2.gif
184.002	1	3	2	3	0.191	3	1	3_2.gif
185.002	1	1	2	4	0.268	4	1	1_2.gif
186.002	1	4	2	6	0	3	n/a	4_2.gif
187.002	1	1	2	6	0	1	n/a	1_2.gif
188.002	1	3	2	6	0	4	n/a	3_2.gif
189.002	1	1	2	1	0.132	1	1	1_2.gif
190.002	1	4	2	3	0.086	3	1	4_2.gif
191.002	1	1	2	1	0.049	1	1	1_2.gif
192.002	1	2	0	2	0.623	2	1	2_0.gif
193.002	1	1	0	1	0.306	1	1	1_0.gif
194.002	1	3	0	3	0.308	3	1	3_0.gif
195.002	1	1	0	1	0.44	1	1	1_0.gif
196.002	1	3	0	3	0.416	3	1	3_0.gif
197.002	1	2	0	2	0.308	2	1	2_0.gif
198.002	1	3	0	3	0.377	3	1	3_0.gif
199.002	1	2	0	2	0.326	2	1	2_0.gif
200.002	1	3	0	3	0.399	3	1	3_0.gif
201.002	1	2	0	2	0.361	2	1	2_0.gif
202.002	1	3	0	3	0.379	3	1	3_0.gif
203.002	1	1	0	1	0.44	1	1	1_0.gif
204.002	1	2	0	2	0.421	2	1	2_0.gif
205.002	1	3	0	3	0.341	3	1	3_0.gif
206.002	1	1	0	1	0.4	1	1	1_0.gif
207.002	1	3	0	3	0.397	3	1	3_0.gif
208.003	1	4	2	6	0	1	n/a	4_2.gif
209.003	1	1	2	6	0	3	n/a	1_2.gif
210.003	1	4	2	4	0.13	4	1	4_2.gif
211.003	1	1	2	1	0.121	1	1	1_2.gif
212.003	1	4	2	4	0.103	4	1	4_2.gif
213.003	1	3	2	1	0.098	1	1	3_2.gif
214.003	1	1	2	6	0	4	n/a	1_2.gif
215.003	1	4	2	3	0.012	3	1	4_2.gif
216.003	1	2	2	1	0.181	1	1	2_2.gif
217.003	1	3	2	4	0.279	4	1	3_2.gif
218.003	1	1	2	2	0.756	2	1	1_2.gif
219.003	1	3	2	6	0	3	n/a	3_2.gif
220.003	1	4	2	1	0.675	1	1	4_2.gif
221.003	1	3	2	3	0.252	3	1	3_2.gif
222.003	1	4	2	4	0.697	4	1	4_2.gif
223.003	1	1	2	6	0	3	n/a	1_2.gif
224.003	1	2	0	2	0.537	2	1	2_0.gif
225.003	1	3	0	3	0.457	3	1	3_0.gif
226.003	1	4	0	4	0.385	4	1	4_0.gif
227.003	1	1	0	1	0.353	1	1	1_0.gif
228.003	1	4	0	4	0.418	4	1	4_0.gif
229.003	1	2	0	2	0.359	2	1	2_0.gif
230.003	1	3	0	3	0.408	3	1	3_0.gif
231.003	1	1	0	1	0.385	1	1	1_0.gif
232.003	1	4	0	4	0.412	4	1	4_0.gif
233.003	1	3	0	3	0.435	3	1	3_0.gif
234.003	1	2	0	2	0.512	2	1	2_0.gif
235.003	1	3	0	3	0.53	3	1	3_0.gif
236.003	1	2	0	2	0.463	2	1	2_0.gif
237.003	1	1	0	1	0.452	1	1	1_0.gif
238.003	1	2	0	2	0.475	2	1	2_0.gif
239.003	1	4	0	4	0.422	4	1	4_0.gif
240.003	1	1	2	6	0	2	n/a	1_2.gif
241.003	1	3	2	6	0	4	n/a	3_2.gif
242.003	1	2	2	1	0.185	1	1	2_2.gif
243.003	1	4	2	3	0.007	3	1	4_2.gif
244.003	1	1	2	2	0.04	2	1	1_2.gif
245.003	1	4	2	4	0.006	4	1	4_2.gif
246.003	1	3	2	6	0	1	n/a	3_2.gif
247.003	1	2	2	4	0.087	4	1	2_2.gif
248.003	1	1	2	3	0.117	3	1	1_2.gif
249.003	1	2	2	2	0.007	2	1	2_2.gif
250.003	1	3	2	3	0.482	1	0	3_2.gif
251.003	1	4	2	6	0	2	n/a	4_2.gif
252.003	1	2	2	6	0	3	n/a	2_2.gif
253.003	1	3	2	6	0	4	n/a	3_2.gif
254.003	1	2	2	2	0.153	2	1	2_2.gif
255.003	1	1	2	3	0.018	3	1	1_2.gif
