onset	duration	nback_display	trial_type	response	response_time	correct_response	correct	stim_file
0	1	2	0	2	0.803	2	1	2_0.gif
1	1	4	0	2	0.005	4	0	4_0.gif
2	1	3	0	3	0.477	3	1	3_0.gif
3	1	2	0	2	0.39	2	1	2_0.gif
4	1	1	0	1	0.379	1	1	1_0.gif
5	1	2	0	2	0.326	2	1	2_0.gif
6	1	3	0	3	0.359	3	1	3_0.gif
7	1	2	0	2	0.352	2	1	2_0.gif
8	1	3	0	3	0.367	3	1	3_0.gif
9	1	4	0	4	0.403	4	1	4_0.gif
10	1	2	0	2	0.367	2	1	2_0.gif
11	1	3	0	3	0.412	3	1	3_0.gif
12	1	4	0	4	0.4	4	1	4_0.gif
13	1	2	0	2	0.355	2	1	2_0.gif
14	1	4	0	4	0.413	4	1	4_0.gif
15	1	1	0	1	0.419	1	1	1_0.gif
16	1	4	2	6	0	4	n/a	4_2.gif
17	1	1	2	6	0	1	n/a	1_2.gif
18	1	3	2	4	0.358	4	1	3_2.gif
19	1	2	2	1	0.277	1	1	2_2.gif
20	1	1	2	3	0.262	3	1	1_2.gif
21	1	3	2	2	0.391	2	1	3_2.gif
22	1	2	2	1	0.34	1	1	2_2.gif
23	1	4	2	3	0.311	3	1	4_2.gif
24	1	2	2	2	0.264	2	1	2_2.gif
25	1	4	2	4	0.278	4	1	4_2.gif
26	1	2	2	2	0.266	2	1	2_2.gif
27	1	1	2	4	0.36	4	1	1_2.gif
28	1	2	2	2	0.346	2	1	2_2.gif
29	1	4	2	1	0.287	1	1	4_2.gif
30	1	1	2	2	0.29	2	1	1_2.gif
31	1	2	2	4	0.273	4	1	2_2.gif
32	1	4	0	1	0.213	4	0	4_0.gif
33	1	2	0	2	0.368	2	1	2_0.gif
34	1	3	0	3	0.37	3	1	3_0.gif
35	1	1	0	1	0.413	1	1	1_0.gif
36	1	4	0	4	0.332	4	1	4_0.gif
37	1	1	0	1	0.381	1	1	1_0.gif
38	1	3	0	3	0.398	3	1	3_0.gif
39	1	2	0	2	0.353	2	1	2_0.gif
40	1	3	0	3	0.398	3	1	3_0.gif
41	1	2	0	2	0.287	2	1	2_0.gif
42	1	1	0	1	0.432	1	1	1_0.gif
43	1	2	0	2	0.395	2	1	2_0.gif
44	1	4	0	4	0.404	4	1	4_0.gif
45	1	1	0	1	0.45	1	1	1_0.gif
46	1	2	0	2	0.314	2	1	2_0.gif
47	1	3	0	3	0.415	3	1	3_0.gif
48	1	1	2	6	0	2	n/a	1_2.gif
49	1	4	2	6	0	3	n/a	4_2.gif
50	1	1	2	1	0.343	1	1	1_2.gif
51	1	3	2	4	0.341	4	1	3_2.gif
52	1	2	2	1	0.309	1	1	2_2.gif
53	1	3	2	3	0.263	3	1	3_2.gif
54	1	2	2	2	0.328	2	1	2_2.gif
55	1	1	2	3	0.253	3	1	1_2.gif
56	1	2	2	2	0.311	2	1	2_2.gif
57	1	3	2	1	0.306	1	1	3_2.gif
58	1	2	2	2	0.25	2	1	2_2.gif
59	1	1	2	3	0.224	3	1	1_2.gif
60	1	3	2	2	0.243	2	1	3_2.gif
61	1	1	2	1	0.227	1	1	1_2.gif
62	1	3	2	3	0.211	3	1	3_2.gif
63	1	2	2	1	0.224	1	1	2_2.gif
64	1	4	0	3	0.353	4	0	4_0.gif
65	1	2	0	4	0.007	2	0	2_0.gif
66	1	3	0	3	0.318	3	1	3_0.gif
67	1	2	0	2	0.301	2	1	2_0.gif
68	1	4	0	4	0.37	4	1	4_0.gif
69	1	2	0	2	0.369	2	1	2_0.gif
70	1	1	0	1	0.373	1	1	1_0.gif
71	1	4	0	4	0.32	4	1	4_0.gif
72	1	1	0	1	0.406	1	1	1_0.gif
73	1	2	0	2	0.362	2	1	2_0.gif
74	1	3	0	3	0.449	3	1	3_0.gif
75	1	1	0	1	0.401	1	1	1_0.gif
76	1	4	0	4	0.367	4	1	4_0.gif
77	1	1	0	1	0.395	1	1	1_0.gif
78	1	3	0	3	0.328	3	1	3_0.gif
79	1	2	0	2	0.362	2	1	2_0.gif
80.001	1	4	2	6	0	3	n/a	4_2.gif
81.001	1	1	2	6	0	2	n/a	1_2.gif
82.001	1	3	2	4	0.255	4	1	3_2.gif
83.001	1	1	2	1	0.229	1	1	1_2.gif
84.001	1	4	2	3	0.224	3	1	4_2.gif
85.001	1	1	2	1	0.206	1	1	1_2.gif
86.001	1	3	2	4	0.211	4	1	3_2.gif
87.001	1	4	2	1	0.251	1	1	4_2.gif
88.001	1	3	2	3	0.33	3	1	3_2.gif
89.001	1	4	2	4	0.227	4	1	4_2.gif
90.001	1	2	2	3	0.234	3	1	2_2.gif
91.001	1	3	2	2	0.495	4	0	3_2.gif
92.001	1	2	2	6	0	2	n/a	2_2.gif
93.001	1	1	2	6	0	3	n/a	1_2.gif
94.001	1	4	2	2	0.447	2	1	4_2.gif
95.001	1	1	2	1	0.239	1	1	1_2.gif
96.001	1	2	0	4	0.32	2	0	2_0.gif
97.001	1	3	0	3	0.353	3	1	3_0.gif
98.001	1	4	0	4	0.327	4	1	4_0.gif
99.001	1	3	0	3	0.349	3	1	3_0.gif
100.001	1	4	0	4	0.279	4	1	4_0.gif
101.001	1	1	0	1	0.365	1	1	1_0.gif
102.001	1	2	0	2	0.357	2	1	2_0.gif
103.001	1	4	0	4	0.364	4	1	4_0.gif
104.001	1	2	0	2	0.376	2	1	2_0.gif
105.001	1	1	0	1	0.377	1	1	1_0.gif
106.001	1	3	0	3	0.366	3	1	3_0.gif
107.001	1	2	0	2	0.305	2	1	2_0.gif
108.001	1	4	0	4	0.337	4	1	4_0.gif
109.001	1	2	0	2	0.348	2	1	2_0.gif
110.001	1	3	0	3	0.476	3	1	3_0.gif
111.001	1	1	0	1	0.44	1	1	1_0.gif
112.001	1	3	2	6	0	3	n/a	3_2.gif
113.001	1	4	2	6	0	1	n/a	4_2.gif
114.001	1	3	2	3	0.252	3	1	3_2.gif
115.001	1	4	2	4	0.217	4	1	4_2.gif
116.001	1	1	2	3	0.311	3	1	1_2.gif
117.001	1	4	2	4	0.235	4	1	4_2.gif
118.001	1	1	2	1	0.242	1	1	1_2.gif
119.001	1	2	2	4	0.289	4	1	2_2.gif
120.001	1	1	2	1	0.219	1	1	1_2.gif
121.001	1	2	2	2	0.175	2	1	2_2.gif
122.001	1	3	2	1	0.17	1	1	3_2.gif
123.001	1	1	2	2	0.22	2	1	1_2.gif
124.001	1	2	2	3	0.225	3	1	2_2.gif
125.001	1	4	2	1	0.227	1	1	4_2.gif
126.001	1	3	2	2	0.203	2	1	3_2.gif
127.001	1	2	2	4	0.171	4	1	2_2.gif
128.001	1	1	0	3	0.191	1	0	1_0.gif
129.001	1	3	0	3	0.433	3	1	3_0.gif
130.001	1	2	0	2	0.339	2	1	2_0.gif
131.001	1	1	0	1	0.368	1	1	1_0.gif
132.001	1	4	0	4	0.388	4	1	4_0.gif
133.001	1	2	0	2	0.323	2	1	2_0.gif
134.001	1	4	0	4	0.247	4	1	4_0.gif
135.001	1	3	0	3	0.44	3	1	3_0.gif
136.001	1	4	0	4	0.331	4	1	4_0.gif
137.001	1	2	0	2	0.326	2	1	2_0.gif
138.001	1	4	0	4	0.357	4	1	4_0.gif
139.001	1	3	0	3	0.426	3	1	3_0.gif
140.001	1	4	0	4	0.251	4	1	4_0.gif
141.001	1	3	0	3	0.306	3	1	3_0.gif
142.001	1	4	0	4	0.205	4	1	4_0.gif
143.001	1	2	0	2	0.383	2	1	2_0.gif
144.001	1	3	2	6	0	4	n/a	3_2.gif
145.001	1	4	2	6	0	2	n/a	4_2.gif
146.001	1	1	2	3	0.262	3	1	1_2.gif
147.001	1	4	2	4	0.276	4	1	4_2.gif
148.001	1	1	2	1	0.232	1	1	1_2.gif
149.001	1	2	2	4	0.305	4	1	2_2.gif
150.001	1	4	2	1	0.248	1	1	4_2.gif
151.001	1	3	2	2	0.245	2	1	3_2.gif
152.001	1	1	2	4	0.285	4	1	1_2.gif
153.001	1	2	2	3	0.243	3	1	2_2.gif
154.001	1	3	2	1	0.247	1	1	3_2.gif
155.001	1	1	2	2	0.266	2	1	1_2.gif
156.001	1	3	2	3	0.187	3	1	3_2.gif
157.001	1	1	2	1	0.102	1	1	1_2.gif
158.001	1	3	2	3	0.018	3	1	3_2.gif
159.001	1	4	2	1	0.112	1	1	4_2.gif
160.002	1	1	0	3	0.122	1	0	1_0.gif
161.002	1	4	0	4	0.262	4	1	4_0.gif
162.002	1	1	0	1	0.296	1	1	1_0.gif
163.002	1	3	0	3	0.388	3	1	3_0.gif
164.002	1	2	0	2	0.695	2	1	2_0.gif
165.002	1	4	0	4	0.361	4	1	4_0.gif
166.002	1	2	0	2	0.296	2	1	2_0.gif
167.002	1	3	0	3	0.564	3	1	3_0.gif
168.002	1	1	0	1	0.344	1	1	1_0.gif
169.002	1	3	0	3	0.318	3	1	3_0.gif
170.002	1	1	0	1	0.332	1	1	1_0.gif
171.002	1	2	0	2	0.406	2	1	2_0.gif
172.002	1	4	0	4	0.318	4	1	4_0.gif
173.002	1	1	0	1	0.364	1	1	1_0.gif
174.002	1	3	0	3	0.444	3	1	3_0.gif
175.002	1	2	0	2	0.336	2	1	2_0.gif
176.002	1	1	2	6	0	3	n/a	1_2.gif
177.002	1	2	2	6	0	2	n/a	2_2.gif
178.002	1	3	2	1	0.183	1	1	3_2.gif
179.002	1	4	2	2	0.277	2	1	4_2.gif
180.002	1	1	2	3	0.162	3	1	1_2.gif
181.002	1	3	2	4	0.167	4	1	3_2.gif
182.002	1	1	2	1	0.154	1	1	1_2.gif
183.002	1	4	2	3	0.137	3	1	4_2.gif
184.002	1	1	2	1	0.101	1	1	1_2.gif
185.002	1	3	2	4	0.153	4	1	3_2.gif
186.002	1	1	2	1	0.169	1	1	1_2.gif
187.002	1	3	2	3	0.162	3	1	3_2.gif
188.002	1	1	2	1	0.15	1	1	1_2.gif
189.002	1	3	2	3	0.179	3	1	3_2.gif
190.002	1	2	2	1	0.297	1	1	2_2.gif
191.002	1	4	2	3	0.247	3	1	4_2.gif
192.002	1	3	0	2	0.143	3	0	3_0.gif
193.002	1	2	0	2	0.269	2	1	2_0.gif
194.002	1	1	0	1	0.318	1	1	1_0.gif
195.002	1	2	0	2	0.306	2	1	2_0.gif
196.002	1	3	0	3	0.414	3	1	3_0.gif
197.002	1	2	0	2	0.323	2	1	2_0.gif
198.002	1	3	0	3	0.264	3	1	3_0.gif
199.002	1	4	0	4	0.533	4	1	4_0.gif
200.002	1	2	0	2	0.304	2	1	2_0.gif
201.002	1	3	0	3	0.339	3	1	3_0.gif
202.002	1	4	0	4	0.27	4	1	4_0.gif
203.002	1	2	0	2	0.266	2	1	2_0.gif
204.002	1	4	0	4	0.252	4	1	4_0.gif
205.002	1	1	0	1	0.389	1	1	1_0.gif
206.002	1	4	0	4	0.343	4	1	4_0.gif
207.002	1	1	0	1	0.378	1	1	1_0.gif
208.002	1	3	2	6	0	4	n/a	3_2.gif
209.002	1	2	2	6	0	1	n/a	2_2.gif
210.002	1	1	2	3	0.168	3	1	1_2.gif
211.002	1	3	2	2	0.195	2	1	3_2.gif
212.002	1	2	2	1	0.214	1	1	2_2.gif
213.002	1	4	2	3	0.183	3	1	4_2.gif
214.002	1	2	2	2	0.207	2	1	2_2.gif
215.002	1	4	2	4	0.189	4	1	4_2.gif
216.002	1	2	2	2	0.178	2	1	2_2.gif
217.002	1	1	2	4	0.373	4	1	1_2.gif
218.002	1	2	2	2	0.186	2	1	2_2.gif
219.002	1	4	2	1	0.115	1	1	4_2.gif
220.002	1	1	2	2	0.07	2	1	1_2.gif
221.002	1	2	2	4	0.039	4	1	2_2.gif
222.002	1	4	2	1	0.128	1	1	4_2.gif
223.002	1	2	2	2	0.15	2	1	2_2.gif
224.003	1	3	0	4	0.161	3	0	3_0.gif
225.003	1	1	0	1	0.392	1	1	1_0.gif
226.003	1	4	0	4	0.335	4	1	4_0.gif
227.003	1	1	0	1	0.323	1	1	1_0.gif
228.003	1	3	0	3	0.552	3	1	3_0.gif
229.003	1	2	0	2	0.275	2	1	2_0.gif
230.003	1	3	0	3	0.276	3	1	3_0.gif
231.003	1	2	0	2	0.295	2	1	2_0.gif
232.003	1	1	0	1	0.353	1	1	1_0.gif
233.003	1	2	0	2	0.364	2	1	2_0.gif
234.003	1	4	0	4	0.349	4	1	4_0.gif
235.003	1	1	0	1	0.327	1	1	1_0.gif
236.003	1	2	0	2	0.374	2	1	2_0.gif
237.003	1	3	0	3	0.414	3	1	3_0.gif
238.003	1	1	0	1	0.359	1	1	1_0.gif
239.003	1	4	0	4	0.35	4	1	4_0.gif
240.003	1	1	2	6	0	1	n/a	1_2.gif
241.003	1	3	2	6	0	4	n/a	3_2.gif
242.003	1	2	2	1	0.308	1	1	2_2.gif
243.003	1	3	2	3	0.259	3	1	3_2.gif
244.003	1	2	2	2	0.213	2	1	2_2.gif
245.003	1	1	2	3	0.16	3	1	1_2.gif
246.003	1	2	2	2	0.188	2	1	2_2.gif
247.003	1	3	2	1	0.174	1	1	3_2.gif
248.003	1	2	2	2	0.195	2	1	2_2.gif
249.003	1	1	2	3	0.176	3	1	1_2.gif
250.003	1	3	2	2	0.219	2	1	3_2.gif
251.003	1	1	2	1	0.263	1	1	1_2.gif
252.003	1	3	2	3	0.183	3	1	3_2.gif
253.003	1	2	2	1	0.329	1	1	2_2.gif
254.003	1	4	2	2	0.845	3	0	4_2.gif
255.003	1	2	2	2	0.006	2	1	2_2.gif
