onset	duration	nback_display	trial_type	response	response_time	correct_response	correct	stim_file
0	1	3	0	3	0.652	3	1	3_0.gif
1	1	2	0	2	0.268	2	1	2_0.gif
2	1	1	0	1	0.273	1	1	1_0.gif
3	1	3	0	3	0.493	3	1	3_0.gif
4	1	4	0	4	0.384	4	1	4_0.gif
5	1	2	0	2	0.327	2	1	2_0.gif
6	1	1	0	1	0.243	1	1	1_0.gif
7	1	2	0	2	0.315	2	1	2_0.gif
8	1	4	0	4	0.307	4	1	4_0.gif
9	1	1	0	1	0.247	1	1	1_0.gif
10	1	2	0	2	0.336	2	1	2_0.gif
11	1	1	0	1	0.347	1	1	1_0.gif
12	1	2	0	2	0.282	2	1	2_0.gif
13	1	1	0	1	0.357	1	1	1_0.gif
14	1	2	0	2	0.297	2	1	2_0.gif
15	1	1	0	1	0.388	1	1	1_0.gif
16	1	2	2	2	0.392	2	1	2_2.gif
17	1	3	2	6	0	1	n/a	3_2.gif
18	1	2	2	2	0.241	2	1	2_2.gif
19	1	1	2	3	0.222	3	1	1_2.gif
20	1	4	2	2	0.133	2	1	4_2.gif
21	1	1	2	1	0.154	1	1	1_2.gif
22	1	4	2	4	0.253	4	1	4_2.gif
23	1	2	2	6	0	1	n/a	2_2.gif
24	1	1	2	6	0	4	n/a	1_2.gif
25	1	2	2	3	0.15	2	0	2_2.gif
26.001	1	1	2	1	0.208	1	1	1_2.gif
27.001	1	4	2	3	0.159	2	0	4_2.gif
28.001	1	1	2	1	0.17	1	1	1_2.gif
29.001	1	2	2	4	0.169	4	1	2_2.gif
30.001	1	4	2	1	0.662	1	1	4_2.gif
31.001	1	1	2	4	0.47	2	0	1_2.gif
32.001	1	2	0	2	0.893	2	1	2_0.gif
33.001	1	3	0	2	0.009	3	0	3_0.gif
34.001	1	1	0	1	0.487	1	1	1_0.gif
35.001	1	3	0	3	0.449	3	1	3_0.gif
36.001	1	4	0	4	0.451	4	1	4_0.gif
37.001	1	2	0	2	0.366	2	1	2_0.gif
38.001	1	4	0	1	0.334	4	0	4_0.gif
39.001	1	2	0	2	0.428	2	1	2_0.gif
40.001	1	3	0	3	0.458	3	1	3_0.gif
41.001	1	2	0	2	0.293	2	1	2_0.gif
42.001	1	3	0	3	0.401	3	1	3_0.gif
43.001	1	1	0	1	0.357	1	1	1_0.gif
44.001	1	2	0	2	0.282	2	1	2_0.gif
45.001	1	1	0	1	0.407	1	1	1_0.gif
46.001	1	4	0	4	0.403	4	1	4_0.gif
47.001	1	3	0	3	0.39	3	1	3_0.gif
48.002	1	2	2	2	0.362	4	0	2_2.gif
49.002	1	3	2	6	0	3	n/a	3_2.gif
50.002	1	4	2	2	0.191	2	1	4_2.gif
51.002	1	1	2	3	0.161	3	1	1_2.gif
52.002	1	2	2	4	0.398	4	1	2_2.gif
53.002	1	3	2	1	0.268	1	1	3_2.gif
54.002	1	2	2	2	0.221	2	1	2_2.gif
55.002	1	1	2	3	0.332	3	1	1_2.gif
56.002	1	4	2	2	0.37	2	1	4_2.gif
57.002	1	1	2	1	0.266	1	1	1_2.gif
58.002	1	3	2	4	0.26	4	1	3_2.gif
59.002	1	2	2	2	0.393	1	0	2_2.gif
60.002	1	3	2	3	0.812	3	1	3_2.gif
61.002	1	2	2	3	0.009	2	0	2_2.gif
62.002	1	3	2	2	0.009	3	0	3_2.gif
63.002	1	2	2	3	0.008	2	0	2_2.gif
64.003	1	3	0	2	0.183	3	0	3_0.gif
65.003	1	1	0	6	0	1	n/a	1_0.gif
66.003	1	4	0	3	0.22	4	0	4_0.gif
67.003	1	2	0	2	0.377	2	1	2_0.gif
68.003	1	3	0	3	0.404	3	1	3_0.gif
69.003	1	1	0	1	0.336	1	1	1_0.gif
70.003	1	4	0	4	0.304	4	1	4_0.gif
71.003	1	1	0	1	0.388	1	1	1_0.gif
72.003	1	3	0	3	0.391	3	1	3_0.gif
73.003	1	4	0	4	0.29	4	1	4_0.gif
74.003	1	1	0	1	0.307	1	1	1_0.gif
75.003	1	3	0	3	0.385	3	1	3_0.gif
76.003	1	4	0	4	0.449	4	1	4_0.gif
77.003	1	1	0	1	0.373	1	1	1_0.gif
78.003	1	4	0	4	0.36	4	1	4_0.gif
79.003	1	1	0	1	0.303	1	1	1_0.gif
80.003	1	2	2	6	0	4	n/a	2_2.gif
81.003	1	1	2	6	0	1	n/a	1_2.gif
82.003	1	4	2	3	0.095	2	0	4_2.gif
83.003	1	1	2	1	0.067	1	1	1_2.gif
84.003	1	4	2	2	0.125	4	0	4_2.gif
85.003	1	1	2	1	0.217	1	1	1_2.gif
86.003	1	3	2	2	0.098	4	0	3_2.gif
87.003	1	4	2	1	0.054	1	1	4_2.gif
88.003	1	3	2	3	0.009	3	1	3_2.gif
89.003	1	1	2	2	0.01	4	0	1_2.gif
90.003	1	4	2	3	0.03	3	1	4_2.gif
91.003	1	1	2	1	0.064	1	1	1_2.gif
92.003	1	4	2	4	0.009	4	1	4_2.gif
93.003	1	2	2	1	0.009	1	1	2_2.gif
94.003	1	3	2	4	0.01	4	1	3_2.gif
95.003	1	1	2	2	0.009	2	1	1_2.gif
96.004	1	4	0	3	0.068	4	0	4_0.gif
97.004	1	2	0	2	0.527	2	1	2_0.gif
98.004	1	4	0	4	0.392	4	1	4_0.gif
99.004	1	1	0	1	0.294	1	1	1_0.gif
100.004	1	3	0	3	0.346	3	1	3_0.gif
101.004	1	1	0	1	0.357	1	1	1_0.gif
102.004	1	3	0	3	0.572	3	1	3_0.gif
103.004	1	1	0	1	0.361	1	1	1_0.gif
104.004	1	2	0	2	0.278	2	1	2_0.gif
105.004	1	1	0	1	0.394	1	1	1_0.gif
106.004	1	2	0	2	0.334	2	1	2_0.gif
107.004	1	4	0	4	0.423	4	1	4_0.gif
108.004	1	2	0	2	0.371	2	1	2_0.gif
109.004	1	4	0	4	0.492	4	1	4_0.gif
110.004	1	1	0	1	0.519	1	1	1_0.gif
111.004	1	4	0	4	0.326	4	1	4_0.gif
112.005	1	2	2	2	0.376	1	0	2_2.gif
113.005	1	4	2	6	0	4	n/a	4_2.gif
114.005	1	2	2	2	0.259	2	1	2_2.gif
115.005	1	1	2	4	0.185	4	1	1_2.gif
116.005	1	2	2	2	0.173	2	1	2_2.gif
117.005	1	4	2	4	0.219	1	0	4_2.gif
118.005	1	3	2	1	0.159	2	0	3_2.gif
119.005	1	4	2	6	0	4	n/a	4_2.gif
120.005	1	1	2	3	0.905	3	1	1_2.gif
121.005	1	2	2	3	0.008	4	0	2_2.gif
122.005	1	3	2	4	0.009	1	0	3_2.gif
123.005	1	4	2	1	0.009	2	0	4_2.gif
124.005	1	3	2	2	0.066	3	0	3_2.gif
125.005	1	4	2	3	0.284	4	0	4_2.gif
126.005	1	1	2	4	0.139	3	0	1_2.gif
127.005	1	4	2	3	0.051	4	0	4_2.gif
128.005	1	1	0	1	0.219	1	1	1_0.gif
129.005	1	4	0	4	0.291	4	1	4_0.gif
130.005	1	3	0	3	0.335	3	1	3_0.gif
131.005	1	2	0	2	0.274	2	1	2_0.gif
132.005	1	4	0	4	0.431	4	1	4_0.gif
133.005	1	1	0	1	0.3	1	1	1_0.gif
134.005	1	3	0	4	0.227	3	0	3_0.gif
135.005	1	2	0	2	0.362	2	1	2_0.gif
136.005	1	4	0	4	0.274	4	1	4_0.gif
137.005	1	3	0	3	0.297	3	1	3_0.gif
138.005	1	1	0	1	0.25	1	1	1_0.gif
139.005	1	4	0	4	0.256	4	1	4_0.gif
140.006	1	2	0	2	0.329	2	1	2_0.gif
141.006	1	1	0	1	0.318	1	1	1_0.gif
142.006	1	4	0	4	0.403	4	1	4_0.gif
143.006	1	2	0	2	0.38	2	1	2_0.gif
144.007	1	1	2	6	0	4	n/a	1_2.gif
145.007	1	2	2	6	0	2	n/a	2_2.gif
146.007	1	4	2	1	0.114	1	1	4_2.gif
147.007	1	2	2	2	0.113	2	1	2_2.gif
148.007	1	3	2	4	0.04	4	1	3_2.gif
149.007	1	4	2	2	0.01	2	1	4_2.gif
150.007	1	2	2	3	0.043	3	1	2_2.gif
151.007	1	3	2	2	0.043	4	0	3_2.gif
152.007	1	2	2	2	0.413	2	1	2_2.gif
153.007	1	4	2	6	0	3	n/a	4_2.gif
154.007	1	1	2	2	0.975	2	1	1_2.gif
155.007	1	2	2	2	0.008	4	0	2_2.gif
156.007	1	1	2	6	0	1	n/a	1_2.gif
157.007	1	3	2	2	0.664	2	1	3_2.gif
158.007	1	2	2	6	0	1	n/a	2_2.gif
159.007	1	3	2	3	0.96	3	1	3_2.gif
160.008	1	4	0	3	0.008	4	0	4_0.gif
161.008	1	1	0	6	0	1	n/a	1_0.gif
162.008	1	2	0	1	0.008	2	0	2_0.gif
163.008	1	4	0	4	0.443	4	1	4_0.gif
164.008	1	2	0	2	0.372	2	1	2_0.gif
165.008	1	4	0	4	0.382	4	1	4_0.gif
166.008	1	2	0	2	0.472	2	1	2_0.gif
167.008	1	4	0	4	0.428	4	1	4_0.gif
168.008	1	2	0	2	0.398	2	1	2_0.gif
169.008	1	3	0	3	0.388	3	1	3_0.gif
170.008	1	4	0	4	0.406	4	1	4_0.gif
171.008	1	1	0	1	0.396	1	1	1_0.gif
172.008	1	4	0	4	0.295	4	1	4_0.gif
173.008	1	2	0	2	0.283	2	1	2_0.gif
174.008	1	1	0	1	0.396	1	1	1_0.gif
175.008	1	2	0	2	0.337	2	1	2_0.gif
176.008	1	1	2	6	0	1	n/a	1_2.gif
177.008	1	2	2	1	0.433	2	0	2_2.gif
178.008	1	3	2	6	0	1	n/a	3_2.gif
179.008	1	2	2	2	0.308	2	1	2_2.gif
180.008	1	4	2	2	0.41	3	0	4_2.gif
181.008	1	2	2	4	0.261	2	0	2_2.gif
182.008	1	1	2	2	0.238	4	0	1_2.gif
183.008	1	3	2	1	0.356	2	0	3_2.gif
184.008	1	2	2	3	0.445	1	0	2_2.gif
185.008	1	4	2	3	0.501	3	1	4_2.gif
186.008	1	3	2	2	0.353	2	1	3_2.gif
187.008	1	2	2	3	0.4	4	0	2_2.gif
188.008	1	1	2	1	0.837	3	0	1_2.gif
189.008	1	3	2	1	0.009	2	0	3_2.gif
190.008	1	4	2	1	0.26	1	1	4_2.gif
191.008	1	2	2	3	0.297	3	1	2_2.gif
192.009	1	1	0	1	0.821	1	1	1_0.gif
193.009	1	2	0	1	0.009	2	0	2_0.gif
194.01	1	4	0	4	0.484	4	1	4_0.gif
195.01	1	1	0	1	0.452	1	1	1_0.gif
196.01	1	2	0	2	0.367	2	1	2_0.gif
197.01	1	1	0	1	0.381	1	1	1_0.gif
198.01	1	2	0	2	0.315	2	1	2_0.gif
199.01	1	1	0	1	0.289	1	1	1_0.gif
200.01	1	2	0	2	0.272	2	1	2_0.gif
201.01	1	1	0	1	0.296	1	1	1_0.gif
202.01	1	2	0	2	0.331	2	1	2_0.gif
203.01	1	3	0	3	0.601	3	1	3_0.gif
204.01	1	2	0	2	0.366	2	1	2_0.gif
205.01	1	1	0	1	0.368	1	1	1_0.gif
206.01	1	4	0	4	0.379	4	1	4_0.gif
207.01	1	1	0	1	0.406	1	1	1_0.gif
208.011	1	4	2	4	0.416	4	1	4_2.gif
209.011	1	2	2	6	0	1	n/a	2_2.gif
210.011	1	1	2	4	0.182	4	1	1_2.gif
211.011	1	2	2	2	0.138	2	1	2_2.gif
212.011	1	1	2	1	0.099	1	1	1_2.gif
213.011	1	4	2	2	0.289	2	1	4_2.gif
214.011	1	1	2	1	0.231	1	1	1_2.gif
215.011	1	2	2	4	0.32	4	1	2_2.gif
216.011	1	4	2	1	0.288	1	1	4_2.gif
217.011	1	1	2	2	0.229	2	1	1_2.gif
218.011	1	2	2	4	0.229	4	1	2_2.gif
219.011	1	3	2	1	0.324	1	1	3_2.gif
220.011	1	1	2	2	0.229	2	1	1_2.gif
221.011	1	3	2	3	0.277	3	1	3_2.gif
222.011	1	4	2	1	0.217	1	1	4_2.gif
223.011	1	2	2	3	0.269	3	1	2_2.gif
224.011	1	4	0	4	0.342	4	1	4_0.gif
225.011	1	2	0	2	0.342	2	1	2_0.gif
226.011	1	3	0	3	0.565	3	1	3_0.gif
227.012	1	2	0	2	0.388	2	1	2_0.gif
228.012	1	3	0	3	0.395	3	1	3_0.gif
229.012	1	1	0	1	0.361	1	1	1_0.gif
230.012	1	2	0	2	0.341	2	1	2_0.gif
231.012	1	1	0	1	0.399	1	1	1_0.gif
232.012	1	4	0	4	0.507	4	1	4_0.gif
233.012	1	3	0	3	0.414	3	1	3_0.gif
234.012	1	2	0	2	0.367	2	1	2_0.gif
235.012	1	3	0	3	0.494	3	1	3_0.gif
236.012	1	4	0	4	0.439	4	1	4_0.gif
237.012	1	1	0	1	0.32	1	1	1_0.gif
238.012	1	2	0	2	0.385	2	1	2_0.gif
239.012	1	3	0	3	0.336	3	1	3_0.gif
240.015	1	2	2	6	0	2	n/a	2_2.gif
241.015	1	1	2	2	0.915	3	0	1_2.gif
242.015	1	4	2	2	0.008	2	1	4_2.gif
243.015	1	1	2	1	0.115	1	1	1_2.gif
244.015	1	3	2	4	0.009	4	1	3_2.gif
245.015	1	2	2	1	0.008	1	1	2_2.gif
246.015	1	3	2	3	0.14	3	1	3_2.gif
247.015	1	2	2	2	0.052	2	1	2_2.gif
248.015	1	3	2	3	0.13	3	1	3_2.gif
249.015	1	2	2	2	0.047	2	1	2_2.gif
250.015	1	3	2	3	0.081	3	1	3_2.gif
251.015	1	1	2	2	0.075	2	1	1_2.gif
252.015	1	4	2	1	0.16	3	0	4_2.gif
253.015	1	2	2	1	0.67	1	1	2_2.gif
254.015	1	3	2	4	0.245	4	1	3_2.gif
255.015	1	1	2	2	0.218	2	1	1_2.gif
