onset	duration	nback_display	trial_type	response	response_time	correct_response	correct	stim_file
0	1	3	0	3	0.801	3	1	3_0.gif
1	1	1	0	3	0.008	1	0	1_0.gif
2	1	3	0	3	0.563	3	1	3_0.gif
3	1	1	0	1	0.414	1	1	1_0.gif
4	1	3	0	3	0.613	3	1	3_0.gif
5	1	4	0	4	0.688	4	1	4_0.gif
6	1	3	0	3	0.575	3	1	3_0.gif
7	1	4	0	4	0.511	4	1	4_0.gif
8	1	1	0	1	0.378	1	1	1_0.gif
9	1	4	0	4	0.304	4	1	4_0.gif
10	1	1	0	1	0.323	1	1	1_0.gif
11	1	2	0	2	0.366	2	1	2_0.gif
12	1	1	0	1	0.566	1	1	1_0.gif
13	1	2	0	2	0.388	2	1	2_0.gif
14	1	1	0	1	0.337	1	1	1_0.gif
15	1	4	0	4	0.588	4	1	4_0.gif
16	1	2	2	6	0	1	n/a	2_2.gif
17	1	3	2	6	0	4	n/a	3_2.gif
18	1	1	2	2	0.239	2	1	1_2.gif
19	1	3	2	3	0.077	3	1	3_2.gif
20	1	4	2	1	0.068	1	1	4_2.gif
21	1	1	2	3	0.134	3	1	1_2.gif
22	1	2	2	4	0.06	4	1	2_2.gif
23	1	1	2	1	0.008	1	1	1_2.gif
24	1	2	2	2	0.009	2	1	2_2.gif
25	1	3	2	1	0.084	1	1	3_2.gif
26	1	1	2	2	0.306	2	1	1_2.gif
27	1	3	2	3	0.294	3	1	3_2.gif
28	1	4	2	1	0.257	1	1	4_2.gif
29	1	2	2	3	0.189	3	1	2_2.gif
30	1	1	2	4	0.105	4	1	1_2.gif
31	1	4	2	2	0.215	2	1	4_2.gif
32.001	1	3	0	1	0.028	3	0	3_0.gif
33.001	1	4	0	3	0.008	4	0	4_0.gif
34.001	1	3	0	4	0.008	3	0	3_0.gif
35.001	1	4	0	3	0.009	4	0	4_0.gif
36.001	1	3	0	3	0.457	3	1	3_0.gif
37.001	1	2	0	2	0.726	2	1	2_0.gif
38.001	1	3	0	3	0.553	3	1	3_0.gif
39.001	1	1	0	1	0.354	1	1	1_0.gif
40.001	1	2	0	2	0.283	2	1	2_0.gif
41.001	1	3	0	3	0.32	3	1	3_0.gif
42.001	1	4	0	4	0.479	4	1	4_0.gif
43.001	1	3	0	3	0.307	3	1	3_0.gif
44.001	1	1	0	1	0.271	1	1	1_0.gif
45.001	1	2	0	2	0.243	2	1	2_0.gif
46.001	1	3	0	3	0.296	3	1	3_0.gif
47.001	1	2	0	2	0.441	2	1	2_0.gif
48.002	1	3	2	3	0.504	3	1	3_2.gif
49.002	1	4	2	6	0	2	n/a	4_2.gif
50.002	1	1	2	3	0.308	3	1	1_2.gif
51.002	1	3	2	4	0.008	4	1	3_2.gif
52.002	1	4	2	1	0.008	1	1	4_2.gif
53.002	1	3	2	3	0.008	3	1	3_2.gif
54.002	1	2	2	4	0.008	4	1	2_2.gif
55.002	1	4	2	3	0.008	3	1	4_2.gif
56.002	1	2	2	4	0.578	2	0	2_2.gif
57.002	1	1	2	2	0.741	4	0	1_2.gif
58.002	1	4	2	2	0.008	2	1	4_2.gif
59.002	1	2	2	6	0	1	n/a	2_2.gif
60.002	1	4	2	4	0.008	4	1	4_2.gif
61.002	1	2	2	2	0.009	2	1	2_2.gif
62.002	1	3	2	4	0.008	4	1	3_2.gif
63.002	1	1	2	3	0.347	2	0	1_2.gif
64.002	1	3	0	3	0.805	3	1	3_0.gif
65.002	1	4	0	3	0.01	4	0	4_0.gif
66.002	1	3	0	3	0.33	3	1	3_0.gif
67.002	1	1	0	1	0.323	1	1	1_0.gif
68.002	1	4	0	4	0.52	4	1	4_0.gif
69.002	1	2	0	2	0.427	2	1	2_0.gif
70.002	1	4	0	4	0.555	4	1	4_0.gif
71.002	1	2	0	2	0.37	2	1	2_0.gif
72.002	1	1	0	1	0.409	1	1	1_0.gif
73.002	1	2	0	2	0.409	2	1	2_0.gif
74.002	1	4	0	4	0.537	4	1	4_0.gif
75.002	1	2	0	2	0.414	2	1	2_0.gif
76.002	1	1	0	1	0.302	1	1	1_0.gif
77.002	1	2	0	2	0.307	2	1	2_0.gif
78.002	1	3	0	3	0.384	3	1	3_0.gif
79.002	1	2	0	2	0.358	2	1	2_0.gif
80.003	1	1	2	6	0	3	n/a	1_2.gif
81.003	1	4	2	6	0	2	n/a	4_2.gif
82.003	1	1	2	1	0.268	1	1	1_2.gif
83.003	1	2	2	4	0.289	4	1	2_2.gif
84.003	1	1	2	1	0.205	1	1	1_2.gif
85.003	1	4	2	2	0.008	2	1	4_2.gif
86.003	1	1	2	1	0.008	1	1	1_2.gif
87.003	1	3	2	4	0.008	4	1	3_2.gif
88.003	1	1	2	1	0.008	1	1	1_2.gif
89.003	1	3	2	3	0.009	3	1	3_2.gif
90.003	1	1	2	1	0.008	1	1	1_2.gif
91.003	1	2	2	3	0.009	3	1	2_2.gif
92.003	1	3	2	1	0.008	1	1	3_2.gif
93.003	1	1	2	2	0.008	2	1	1_2.gif
94.003	1	4	2	3	0.008	3	1	4_2.gif
95.003	1	2	2	1	0.008	1	1	2_2.gif
96.003	1	3	0	4	0.009	3	0	3_0.gif
97.003	1	4	0	3	0.009	4	0	4_0.gif
98.003	1	2	0	2	0.622	2	1	2_0.gif
99.003	1	4	0	4	0.529	4	1	4_0.gif
100.003	1	1	0	1	0.332	1	1	1_0.gif
101.003	1	2	0	2	0.392	2	1	2_0.gif
102.003	1	1	0	1	0.384	1	1	1_0.gif
103.004	1	4	0	4	0.304	4	1	4_0.gif
104.004	1	1	0	1	0.342	1	1	1_0.gif
105.004	1	3	0	3	0.298	3	1	3_0.gif
106.004	1	2	0	2	0.335	2	1	2_0.gif
107.004	1	4	0	4	0.49	4	1	4_0.gif
108.004	1	2	0	2	0.338	2	1	2_0.gif
109.004	1	1	0	1	0.277	1	1	1_0.gif
110.004	1	3	0	3	0.326	3	1	3_0.gif
111.004	1	4	0	4	0.347	4	1	4_0.gif
112.004	1	2	2	2	0.409	3	0	2_2.gif
113.004	1	4	2	6	0	4	n/a	4_2.gif
114.004	1	1	2	2	0.486	2	1	1_2.gif
115.004	1	4	2	4	0.167	4	1	4_2.gif
116.004	1	2	2	1	0.009	1	1	2_2.gif
117.004	1	1	2	4	0.008	4	1	1_2.gif
118.004	1	2	2	1	0.519	2	0	2_2.gif
119.004	1	1	2	2	0.833	1	0	1_2.gif
120.004	1	2	2	2	0.008	2	1	2_2.gif
121.004	1	4	2	1	0.008	1	1	4_2.gif
122.004	1	3	2	2	0.008	2	1	3_2.gif
123.004	1	2	2	4	0.01	4	1	2_2.gif
124.004	1	1	2	2	0.382	3	0	1_2.gif
125.004	1	2	2	1	0.266	2	0	2_2.gif
126.004	1	4	2	2	0.193	1	0	4_2.gif
127.004	1	1	2	4	0.242	2	0	1_2.gif
128.005	1	2	0	1	0.016	2	0	2_0.gif
129.005	1	3	0	2	0.093	3	0	3_0.gif
130.005	1	4	0	3	0.008	4	0	4_0.gif
131.005	1	3	0	3	0.48	3	1	3_0.gif
132.005	1	1	0	1	0.422	1	1	1_0.gif
133.005	1	3	0	3	0.345	3	1	3_0.gif
134.005	1	1	0	1	0.429	1	1	1_0.gif
135.005	1	3	0	3	0.434	3	1	3_0.gif
136.005	1	1	0	1	0.367	1	1	1_0.gif
137.005	1	3	0	3	0.358	3	1	3_0.gif
138.005	1	1	0	1	0.321	1	1	1_0.gif
139.005	1	4	0	4	0.471	4	1	4_0.gif
140.005	1	2	0	2	0.515	2	1	2_0.gif
141.005	1	1	0	1	0.519	1	1	1_0.gif
142.005	1	4	0	4	0.773	4	1	4_0.gif
143.005	1	1	0	1	0.344	1	1	1_0.gif
144.005	1	3	2	6	0	4	n/a	3_2.gif
145.006	1	4	2	6	0	1	n/a	4_2.gif
146.006	1	2	2	3	0.091	3	1	2_2.gif
147.006	1	1	2	4	0.009	4	1	1_2.gif
148.006	1	2	2	2	0.008	2	1	2_2.gif
149.006	1	3	2	2	0.282	1	0	3_2.gif
150.006	1	1	2	3	0.115	2	0	1_2.gif
151.006	1	4	2	1	0.007	3	0	4_2.gif
152.006	1	2	2	4	0.008	1	0	2_2.gif
153.006	1	3	2	6	0	4	n/a	3_2.gif
154.006	1	4	2	2	0.273	2	1	4_2.gif
155.006	1	2	2	4	0.155	3	0	2_2.gif
156.006	1	4	2	2	0.008	4	0	4_2.gif
157.006	1	2	2	4	0.045	2	0	2_2.gif
158.006	1	4	2	2	0.091	4	0	4_2.gif
159.006	1	1	2	4	0.008	2	0	1_2.gif
160.006	1	2	0	2	0.009	2	1	2_0.gif
161.006	1	1	0	2	0.331	1	0	1_0.gif
162.006	1	3	0	1	0.009	3	0	3_0.gif
163.006	1	2	0	2	0.624	2	1	2_0.gif
164.006	1	3	0	3	0.417	3	1	3_0.gif
165.006	1	4	0	4	0.513	4	1	4_0.gif
166.006	1	3	0	3	0.362	3	1	3_0.gif
167.006	1	4	0	2	0.279	4	0	4_0.gif
168.006	1	2	0	3	0.388	2	0	2_0.gif
169.006	1	4	0	2	0.01	4	0	4_0.gif
170.006	1	3	0	4	0.01	3	0	3_0.gif
171.006	1	4	0	6	0	4	n/a	4_0.gif
172.006	1	2	0	4	0.184	2	0	2_0.gif
173.006	1	4	0	4	0.413	4	1	4_0.gif
174.006	1	3	0	2	0.036	3	0	3_0.gif
175.006	1	4	0	3	0.009	4	0	4_0.gif
176.006	1	2	2	6	0	3	n/a	2_2.gif
177.006	1	3	2	2	0.873	4	0	3_2.gif
178.006	1	4	2	2	0.008	2	1	4_2.gif
179.006	1	1	2	4	0.313	3	0	1_2.gif
180.006	1	4	2	1	0.07	4	0	4_2.gif
181.006	1	3	2	4	0.009	1	0	3_2.gif
182.006	1	2	2	3	0.009	4	0	2_2.gif
183.006	1	3	2	2	0.272	3	0	3_2.gif
184.006	1	4	2	2	0.008	2	1	4_2.gif
185.006	1	1	2	4	0.237	3	0	1_2.gif
186.006	1	2	2	1	0.019	4	0	2_2.gif
187.006	1	4	2	2	0.019	1	0	4_2.gif
188.006	1	2	2	4	0.49	2	0	2_2.gif
189.006	1	4	2	2	0.3	4	0	4_2.gif
190.006	1	2	2	4	0.046	2	0	2_2.gif
191.006	1	4	2	2	0.008	4	0	4_2.gif
192.007	1	2	0	4	0.008	2	0	2_0.gif
193.007	1	4	0	2	0.008	4	0	4_0.gif
194.007	1	3	0	4	0.008	3	0	3_0.gif
195.007	1	1	0	3	0.008	1	0	1_0.gif
196.007	1	3	0	3	0.473	3	1	3_0.gif
197.007	1	1	0	1	0.333	1	1	1_0.gif
198.007	1	3	0	3	0.375	3	1	3_0.gif
199.007	1	4	0	4	0.296	4	1	4_0.gif
200.007	1	3	0	3	0.339	3	1	3_0.gif
201.007	1	4	0	4	0.469	4	1	4_0.gif
202.007	1	1	0	1	0.512	1	1	1_0.gif
203.007	1	4	0	4	0.504	4	1	4_0.gif
204.007	1	1	0	1	0.323	1	1	1_0.gif
205.007	1	2	0	2	0.529	2	1	2_0.gif
206.007	1	1	0	3	0.376	1	0	1_0.gif
207.007	1	2	0	2	0.387	2	1	2_0.gif
208.007	1	1	2	6	0	1	n/a	1_2.gif
209.007	1	4	2	6	0	2	n/a	4_2.gif
210.007	1	2	2	1	0.419	1	1	2_2.gif
211.007	1	3	2	4	0.049	4	1	3_2.gif
212.007	1	1	2	2	0.008	2	1	1_2.gif
213.007	1	3	2	1	0.386	3	0	3_2.gif
214.007	1	4	2	3	0.233	1	0	4_2.gif
215.007	1	1	2	4	0.791	3	0	1_2.gif
216.007	1	2	2	4	0.009	4	1	2_2.gif
217.007	1	1	2	2	0.571	1	0	1_2.gif
218.007	1	2	2	1	0.076	2	0	2_2.gif
219.007	1	3	2	2	0.009	1	0	3_2.gif
220.007	1	1	2	3	0.244	2	0	1_2.gif
221.007	1	3	2	1	0.433	3	0	3_2.gif
222.007	1	4	2	3	0.031	1	0	4_2.gif
223.007	1	2	2	3	0.317	3	1	2_2.gif
224.008	1	1	0	4	0.009	1	0	1_0.gif
225.008	1	4	0	1	0.008	4	0	4_0.gif
226.008	1	3	0	4	0.008	3	0	3_0.gif
227.008	1	4	0	4	0.559	4	1	4_0.gif
228.008	1	3	0	3	0.368	3	1	3_0.gif
229.008	1	4	0	4	0.516	4	1	4_0.gif
230.008	1	3	0	3	0.336	3	1	3_0.gif
231.008	1	2	0	2	0.497	2	1	2_0.gif
232.008	1	3	0	3	0.34	3	1	3_0.gif
233.008	1	1	0	1	0.444	1	1	1_0.gif
234.008	1	2	0	2	0.409	2	1	2_0.gif
235.008	1	3	0	3	0.414	3	1	3_0.gif
236.008	1	4	0	4	0.472	4	1	4_0.gif
237.008	1	3	0	3	0.297	3	1	3_0.gif
238.008	1	1	0	1	0.404	1	1	1_0.gif
239.008	1	2	0	2	0.498	2	1	2_0.gif
240.008	1	3	2	6	0	1	n/a	3_2.gif
241.008	1	2	2	6	0	2	n/a	2_2.gif
242.008	1	3	2	3	0.217	3	1	3_2.gif
243.008	1	4	2	2	0.008	2	1	4_2.gif
244.008	1	1	2	3	0.009	3	1	1_2.gif
245.008	1	3	2	4	0.01	4	1	3_2.gif
246.008	1	4	2	1	0.009	1	1	4_2.gif
247.008	1	3	2	3	0.009	3	1	3_2.gif
248.008	1	2	2	4	0.008	4	1	2_2.gif
249.008	1	4	2	3	0.008	3	1	4_2.gif
250.008	1	2	2	4	0.491	2	0	2_2.gif
251.008	1	1	2	2	0.354	4	0	1_2.gif
252.008	1	4	2	1	0.309	2	0	4_2.gif
253.008	1	2	2	4	0.233	1	0	2_2.gif
254.008	1	4	2	2	0.674	4	0	4_2.gif
255.008	1	2	2	4	0.745	2	0	2_2.gif
