onset	duration	nback_display	trial_type	response	response_time	correct_response	correct	stim_file
0	1	2	0	2	0.739	2	1	2_0.gif
1	1	3	0	3	0.908	3	1	3_0.gif
2	1	2	0	3	0.005	2	0	2_0.gif
3	1	4	0	4	0.508	4	1	4_0.gif
4	1	2	0	2	0.461	2	1	2_0.gif
5	1	3	0	3	0.339	3	1	3_0.gif
6	1	2	0	2	0.464	2	1	2_0.gif
7	1	3	0	3	0.953	3	1	3_0.gif
8	1	4	0	3	0.006	4	0	4_0.gif
9	1	2	0	2	0.448	2	1	2_0.gif
10	1	4	0	4	0.544	4	1	4_0.gif
11	1	1	0	1	0.532	1	1	1_0.gif
12	1	4	0	4	0.54	4	1	4_0.gif
13	1	1	0	1	0.583	1	1	1_0.gif
14	1	3	0	3	0.576	3	1	3_0.gif
15	1	2	0	2	0.594	2	1	2_0.gif
16	1	4	2	6	0	3	n/a	4_2.gif
17	1	2	2	6	0	2	n/a	2_2.gif
18	1	3	2	4	0.314	4	1	3_2.gif
19	1	2	2	2	0.225	2	1	2_2.gif
20	1	4	2	3	0.223	3	1	4_2.gif
21	1	1	2	1	0.674	2	0	1_2.gif
22	1	2	2	2	0.332	4	0	2_2.gif
23	1	4	2	6	0	1	n/a	4_2.gif
24	1	1	2	6	0	2	n/a	1_2.gif
25	1	4	2	6	0	4	n/a	4_2.gif
26	1	2	2	6	0	1	n/a	2_2.gif
27	1	3	2	1	0.264	4	0	3_2.gif
28	1	1	2	2	0.544	2	1	1_2.gif
29	1	4	2	3	0.825	3	1	4_2.gif
30	1	1	2	3	0.006	1	0	1_2.gif
31	1	3	2	4	0.368	4	1	3_2.gif
32	1	2	0	1	0.253	2	0	2_0.gif
33	1	1	0	2	0.07	1	0	1_0.gif
34	1	2	0	1	0.341	2	0	2_0.gif
35	1	4	0	2	0.054	4	0	4_0.gif
36	1	1	0	1	0.521	1	1	1_0.gif
37	1	3	0	3	0.512	3	1	3_0.gif
38	1	4	0	4	0.405	4	1	4_0.gif
39	1	1	0	1	0.525	1	1	1_0.gif
40	1	2	0	2	0.424	2	1	2_0.gif
41	1	1	0	1	0.526	1	1	1_0.gif
42	1	2	0	2	0.486	2	1	2_0.gif
43	1	1	0	1	0.554	1	1	1_0.gif
44	1	4	0	4	0.556	4	1	4_0.gif
45	1	2	0	2	0.475	2	1	2_0.gif
46	1	3	0	3	0.569	3	1	3_0.gif
47	1	2	0	2	0.645	2	1	2_0.gif
48	1	1	2	6	0	3	n/a	1_2.gif
49	1	3	2	6	0	2	n/a	3_2.gif
50	1	1	2	1	0.331	1	1	1_2.gif
51	1	3	2	3	0.007	3	1	3_2.gif
52	1	1	2	1	0.026	1	1	1_2.gif
53	1	3	2	3	0.299	3	1	3_2.gif
54	1	2	2	1	0.782	1	1	2_2.gif
55	1	3	2	3	0.185	3	1	3_2.gif
56	1	2	2	2	0.247	2	1	2_2.gif
57	1	3	2	3	0.007	3	1	3_2.gif
58	1	2	2	2	0.223	2	1	2_2.gif
59	1	4	2	2	0.824	3	0	4_2.gif
60	1	3	2	4	0.4	2	0	3_2.gif
61	1	1	2	6	0	4	n/a	1_2.gif
62	1	4	2	1	0.7	3	0	4_2.gif
63	1	1	2	3	0.076	1	0	1_2.gif
64	1	2	0	1	0.007	2	0	2_0.gif
65	1	3	0	2	0.006	3	0	3_0.gif
66	1	1	0	1	0.557	1	1	1_0.gif
67	1	4	0	4	0.496	4	1	4_0.gif
68	1	1	0	1	0.381	1	1	1_0.gif
69	1	3	0	3	0.41	3	1	3_0.gif
70	1	2	0	2	0.417	2	1	2_0.gif
71	1	4	0	4	0.595	4	1	4_0.gif
72	1	1	0	1	0.478	1	1	1_0.gif
73	1	3	0	3	0.537	3	1	3_0.gif
74	1	1	0	1	0.483	1	1	1_0.gif
75	1	3	0	3	0.638	3	1	3_0.gif
76	1	1	0	1	0.557	1	1	1_0.gif
77	1	3	0	3	0.358	3	1	3_0.gif
78	1	4	0	4	0.537	4	1	4_0.gif
79	1	2	0	2	0.454	2	1	2_0.gif
80.001	1	4	2	6	0	4	n/a	4_2.gif
81.001	1	2	2	6	0	2	n/a	2_2.gif
82.001	1	3	2	4	0.243	4	1	3_2.gif
83.001	1	1	2	3	0.373	2	0	1_2.gif
84.001	1	2	2	1	0.006	3	0	2_2.gif
85.001	1	1	2	2	0.088	1	0	1_2.gif
86.001	1	4	2	1	0.241	2	0	4_2.gif
87.001	1	2	2	4	0.591	1	0	2_2.gif
88.001	1	3	2	2	0.463	4	0	3_2.gif
89.001	1	4	2	3	0.477	2	0	4_2.gif
90.001	1	1	2	4	0.484	3	0	1_2.gif
91.001	1	3	2	6	0	4	n/a	3_2.gif
92.001	1	4	2	1	0.225	1	1	4_2.gif
93.001	1	1	2	4	0.76	3	0	1_2.gif
94.001	1	3	2	6	0	4	n/a	3_2.gif
95.001	1	2	2	1	0.487	1	1	2_2.gif
96.001	1	4	0	4	0.963	4	1	4_0.gif
97.001	1	1	0	4	0.007	1	0	1_0.gif
98.001	1	2	0	1	0.085	2	0	2_0.gif
99.001	1	4	0	2	0.282	4	0	4_0.gif
100.001	1	2	0	3	0.332	2	0	2_0.gif
101.001	1	4	0	2	0.096	4	0	4_0.gif
102.001	1	2	0	4	0.244	2	0	2_0.gif
103.001	1	3	0	3	0.505	3	1	3_0.gif
104.001	1	1	0	1	0.376	1	1	1_0.gif
105.001	1	3	0	3	0.545	3	1	3_0.gif
106.001	1	4	0	4	0.624	4	1	4_0.gif
107.001	1	2	0	2	0.371	2	1	2_0.gif
108.001	1	4	0	4	0.532	4	1	4_0.gif
109.001	1	1	0	1	0.429	1	1	1_0.gif
110.001	1	4	0	4	0.569	4	1	4_0.gif
111.001	1	1	0	1	0.454	1	1	1_0.gif
112.001	1	2	2	6	0	4	n/a	2_2.gif
113.001	1	1	2	6	0	1	n/a	1_2.gif
114.001	1	2	2	2	0.406	2	1	2_2.gif
115.001	1	3	2	2	0.816	1	0	3_2.gif
116.001	1	1	2	3	0.491	2	0	1_2.gif
117.001	1	2	2	1	0.466	3	0	2_2.gif
118.001	1	4	2	2	0.218	1	0	4_2.gif
119.001	1	3	2	4	0.596	2	0	3_2.gif
120.001	1	2	2	3	0.559	4	0	2_2.gif
121.001	1	1	2	6	0	3	n/a	1_2.gif
122.001	1	3	2	2	0.298	2	1	3_2.gif
123.001	1	2	2	6	0	1	n/a	2_2.gif
124.001	1	1	2	3	0.407	3	1	1_2.gif
125.001	1	4	2	6	0	2	n/a	4_2.gif
126.001	1	1	2	1	0.262	1	1	1_2.gif
127.001	1	4	2	6	0	4	n/a	4_2.gif
128.001	1	3	0	6	0	3	n/a	3_0.gif
129.001	1	4	0	3	0.163	4	0	4_0.gif
130.001	1	1	0	1	0.498	1	1	1_0.gif
131.001	1	4	0	4	0.475	4	1	4_0.gif
132.001	1	2	0	2	0.378	2	1	2_0.gif
133.001	1	4	0	4	0.596	4	1	4_0.gif
134.001	1	3	0	3	0.538	3	1	3_0.gif
135.001	1	2	0	2	0.584	2	1	2_0.gif
136.001	1	4	0	4	0.685	4	1	4_0.gif
137.001	1	2	0	2	0.669	2	1	2_0.gif
138.001	1	1	0	1	0.533	1	1	1_0.gif
139.001	1	4	0	4	0.68	4	1	4_0.gif
140.001	1	1	0	1	0.512	1	1	1_0.gif
141.001	1	3	0	3	0.491	3	1	3_0.gif
142.001	1	1	0	1	0.532	1	1	1_0.gif
143.001	1	2	0	2	0.596	2	1	2_0.gif
144.002	1	4	2	6	0	1	n/a	4_2.gif
145.002	1	2	2	6	0	2	n/a	2_2.gif
146.002	1	3	2	4	0.27	4	1	3_2.gif
147.002	1	2	2	6	0	2	n/a	2_2.gif
148.002	1	4	2	3	0.009	3	1	4_2.gif
149.002	1	1	2	6	0	2	n/a	1_2.gif
150.002	1	3	2	4	0.241	4	1	3_2.gif
151.002	1	1	2	6	0	1	n/a	1_2.gif
152.002	1	3	2	3	0.516	3	1	3_2.gif
153.002	1	4	2	1	0.006	1	1	4_2.gif
154.002	1	1	2	6	0	3	n/a	1_2.gif
155.002	1	4	2	4	0.297	4	1	4_2.gif
156.002	1	2	2	6	0	1	n/a	2_2.gif
157.002	1	1	2	6	0	4	n/a	1_2.gif
158.002	1	3	2	2	0.251	2	1	3_2.gif
159.002	1	1	2	6	0	1	n/a	1_2.gif
160.002	1	2	0	2	0.766	2	1	2_0.gif
161.002	1	3	0	2	0.007	3	0	3_0.gif
162.002	1	2	0	3	0.053	2	0	2_0.gif
163.002	1	3	0	2	0.007	3	0	3_0.gif
164.002	1	1	0	1	0.336	1	1	1_0.gif
165.002	1	2	0	2	0.418	2	1	2_0.gif
166.002	1	3	0	3	0.448	3	1	3_0.gif
167.002	1	1	0	1	0.412	1	1	1_0.gif
168.002	1	2	0	2	0.382	2	1	2_0.gif
169.002	1	3	0	3	0.391	3	1	3_0.gif
170.002	1	2	0	2	0.473	2	1	2_0.gif
171.002	1	1	0	1	0.339	1	1	1_0.gif
172.002	1	3	0	3	0.637	3	1	3_0.gif
173.002	1	2	0	2	0.581	2	1	2_0.gif
174.002	1	1	0	1	0.364	1	1	1_0.gif
175.002	1	2	0	2	0.539	2	1	2_0.gif
176.002	1	1	2	6	0	1	n/a	1_2.gif
177.002	1	4	2	6	0	2	n/a	4_2.gif
178.002	1	1	2	1	0.277	1	1	1_2.gif
179.002	1	3	2	1	0.758	4	0	3_2.gif
180.002	1	1	2	3	0.15	1	0	1_2.gif
181.002	1	4	2	6	0	3	n/a	4_2.gif
182.002	1	1	2	1	0.246	1	1	1_2.gif
183.002	1	2	2	1	0.669	4	0	2_2.gif
184.002	1	1	2	2	0.013	1	0	1_2.gif
185.002	1	3	2	6	0	2	n/a	3_2.gif
186.002	1	1	2	1	0.238	1	1	1_2.gif
187.002	1	3	2	6	0	3	n/a	3_2.gif
188.002	1	2	2	1	0.377	1	1	2_2.gif
189.002	1	3	2	6	0	3	n/a	3_2.gif
190.002	1	2	2	2	0.255	2	1	2_2.gif
191.002	1	4	2	3	0.276	3	1	4_2.gif
192.003	1	2	0	2	0.91	2	1	2_0.gif
193.003	1	3	0	2	0.006	3	0	3_0.gif
194.003	1	2	0	2	0.732	2	1	2_0.gif
195.003	1	3	0	3	0.448	3	1	3_0.gif
196.003	1	4	0	4	0.576	4	1	4_0.gif
197.003	1	2	0	2	0.372	2	1	2_0.gif
198.003	1	4	0	4	0.532	4	1	4_0.gif
199.003	1	1	0	1	0.52	1	1	1_0.gif
200.003	1	4	0	4	0.544	4	1	4_0.gif
201.003	1	1	0	1	0.495	1	1	1_0.gif
202.003	1	3	0	3	0.545	3	1	3_0.gif
203.003	1	2	0	2	0.798	2	1	2_0.gif
204.003	1	4	0	2	0.006	4	0	4_0.gif
205.003	1	2	0	2	0.509	2	1	2_0.gif
206.003	1	3	0	3	0.498	3	1	3_0.gif
207.003	1	2	0	2	0.48	2	1	2_0.gif
208.003	1	4	2	6	0	3	n/a	4_2.gif
209.003	1	1	2	6	0	2	n/a	1_2.gif
210.003	1	2	2	4	0.029	4	1	2_2.gif
211.003	1	4	2	2	0.508	1	0	4_2.gif
212.003	1	1	2	4	0.319	2	0	1_2.gif
213.003	1	4	2	1	0.812	4	0	4_2.gif
214.003	1	2	2	4	0.42	1	0	2_2.gif
215.003	1	3	2	2	0.839	4	0	3_2.gif
216.003	1	1	2	2	0.038	2	1	1_2.gif
217.003	1	4	2	6	0	3	n/a	4_2.gif
218.003	1	1	2	1	0.377	1	1	1_2.gif
219.003	1	3	2	6	0	4	n/a	3_2.gif
220.003	1	2	2	1	0.376	1	1	2_2.gif
221.003	1	1	2	3	0.006	3	1	1_2.gif
222.003	1	2	2	1	0.007	2	0	2_2.gif
223.003	1	4	2	1	0.495	1	1	4_2.gif
224.003	1	1	0	1	0.859	1	1	1_0.gif
225.003	1	3	0	1	0.007	3	0	3_0.gif
226.003	1	4	0	3	0.007	4	0	4_0.gif
227.003	1	1	0	1	0.427	1	1	1_0.gif
228.003	1	2	0	2	0.459	2	1	2_0.gif
229.003	1	1	0	1	0.401	1	1	1_0.gif
230.003	1	2	0	2	0.603	2	1	2_0.gif
231.003	1	1	0	1	0.461	1	1	1_0.gif
232.003	1	4	0	4	0.586	4	1	4_0.gif
233.003	1	2	0	2	0.497	2	1	2_0.gif
234.003	1	3	0	3	0.53	3	1	3_0.gif
235.003	1	2	0	2	0.459	2	1	2_0.gif
236.003	1	1	0	1	0.402	1	1	1_0.gif
237.003	1	3	0	3	0.735	3	1	3_0.gif
238.003	1	1	0	1	0.898	1	1	1_0.gif
239.003	1	3	0	1	0.007	3	0	3_0.gif
240.003	1	1	2	6	0	1	n/a	1_2.gif
241.003	1	3	2	6	0	3	n/a	3_2.gif
242.003	1	2	2	1	0.506	1	1	2_2.gif
243.003	1	3	2	3	0.007	3	1	3_2.gif
244.003	1	2	2	2	0.194	2	1	2_2.gif
245.003	1	3	2	2	0.566	3	0	3_2.gif
246.003	1	2	2	3	0.242	2	0	2_2.gif
247.003	1	4	2	2	0.617	3	0	4_2.gif
248.003	1	3	2	4	0.007	2	0	3_2.gif
249.003	1	1	2	3	0.08	4	0	1_2.gif
250.003	1	4	2	1	0.007	3	0	4_2.gif
251.003	1	1	2	6	0	1	n/a	1_2.gif
252.003	1	2	2	4	0.006	4	1	2_2.gif
253.003	1	3	2	6	0	1	n/a	3_2.gif
254.003	1	1	2	2	0.663	2	1	1_2.gif
255.003	1	4	2	3	0.007	3	1	4_2.gif
