onset	duration	nback_display	trial_type	response	response_time	correct_response	correct	stim_file
0	1	3	0	3	0.742	3	1	3_0.gif
1	1	1	0	3	0.005	1	0	1_0.gif
2	1	2	0	2	0.362	2	1	2_0.gif
3	1	3	0	3	0.414	3	1	3_0.gif
4.001	1	4	0	4	0.37	4	1	4_0.gif
5.001	1	3	0	3	0.411	3	1	3_0.gif
6.001	1	2	0	2	0.606	2	1	2_0.gif
7.001	1	1	0	1	0.423	1	1	1_0.gif
8.001	1	3	0	3	0.393	3	1	3_0.gif
9.001	1	4	0	4	0.252	4	1	4_0.gif
10.001	1	1	0	1	0.413	1	1	1_0.gif
11.001	1	3	0	3	0.463	3	1	3_0.gif
12.001	1	1	0	1	0.443	1	1	1_0.gif
13.001	1	2	0	2	0.296	2	1	2_0.gif
14.001	1	1	0	1	0.409	1	1	1_0.gif
15.001	1	2	0	2	0.383	2	1	2_0.gif
16.001	1	4	2	6	0	1	n/a	4_2.gif
17.001	1	3	2	6	0	2	n/a	3_2.gif
18.001	1	4	2	4	0.235	4	1	4_2.gif
19.001	1	1	2	3	0.193	3	1	1_2.gif
20.001	1	2	2	4	0.175	4	1	2_2.gif
21.001	1	1	2	1	0.187	1	1	1_2.gif
22.001	1	2	2	2	0.399	2	1	2_2.gif
23.001	1	3	2	1	0.247	1	1	3_2.gif
24.001	1	1	2	2	0.21	2	1	1_2.gif
25.001	1	4	2	3	0.199	3	1	4_2.gif
26.001	1	2	2	1	0.144	1	1	2_2.gif
27.001	1	4	2	4	0.051	4	1	4_2.gif
28.001	1	1	2	2	0.12	2	1	1_2.gif
29.001	1	3	2	4	0.016	4	1	3_2.gif
30.001	1	4	2	1	0.007	1	1	4_2.gif
31.001	1	2	2	3	0.006	3	1	2_2.gif
32.002	1	1	0	4	0.012	1	0	1_0.gif
33.002	1	4	0	1	0.014	4	0	4_0.gif
34.002	1	2	0	4	0.005	2	0	2_0.gif
35.002	1	4	0	2	0.005	4	0	4_0.gif
36.002	1	2	0	2	0.643	2	1	2_0.gif
37.002	1	3	0	3	0.568	3	1	3_0.gif
38.002	1	1	0	1	0.379	1	1	1_0.gif
39.002	1	2	0	2	0.336	2	1	2_0.gif
40.002	1	1	0	1	0.394	1	1	1_0.gif
41.002	1	4	0	4	0.34	4	1	4_0.gif
42.002	1	2	0	2	0.33	2	1	2_0.gif
43.002	1	3	0	3	0.248	3	1	3_0.gif
44.002	1	1	0	1	0.335	1	1	1_0.gif
45.002	1	3	0	3	0.417	3	1	3_0.gif
46.002	1	2	0	2	0.315	2	1	2_0.gif
47.002	1	3	0	3	0.371	3	1	3_0.gif
48.002	1	1	2	6	0	2	n/a	1_2.gif
49.002	1	2	2	6	0	3	n/a	2_2.gif
50.002	1	4	2	1	0.225	1	1	4_2.gif
51.002	1	3	2	2	0.188	2	1	3_2.gif
52.002	1	2	2	4	0.183	4	1	2_2.gif
53.002	1	4	2	3	0.154	3	1	4_2.gif
54.002	1	2	2	2	0.074	2	1	2_2.gif
55.002	1	3	2	4	0.029	4	1	3_2.gif
56.002	1	2	2	2	0.047	2	1	2_2.gif
57.002	1	4	2	3	0.071	3	1	4_2.gif
58.002	1	3	2	2	0.007	2	1	3_2.gif
59.002	1	2	2	4	0.006	4	1	2_2.gif
60.002	1	3	2	3	0.006	3	1	3_2.gif
61.002	1	1	2	2	0.007	2	1	1_2.gif
62.002	1	3	2	3	0.006	3	1	3_2.gif
63.002	1	4	2	1	0.006	1	1	4_2.gif
64.002	1	2	0	2	0.767	2	1	2_0.gif
65.002	1	1	0	1	0.596	1	1	1_0.gif
66.002	1	3	0	3	0.551	3	1	3_0.gif
67.003	1	1	0	1	0.369	1	1	1_0.gif
68.003	1	2	0	2	0.314	2	1	2_0.gif
69.003	1	1	0	1	0.364	1	1	1_0.gif
70.003	1	2	0	2	0.313	2	1	2_0.gif
71.003	1	4	0	4	0.375	4	1	4_0.gif
72.003	1	3	0	3	0.279	3	1	3_0.gif
73.003	1	1	0	1	0.311	1	1	1_0.gif
74.003	1	2	0	2	0.299	2	1	2_0.gif
75.003	1	4	0	4	0.268	4	1	4_0.gif
76.003	1	2	0	2	0.36	2	1	2_0.gif
77.003	1	3	0	3	0.257	3	1	3_0.gif
78.003	1	2	0	2	0.289	2	1	2_0.gif
79.003	1	4	0	4	0.226	4	1	4_0.gif
80.003	1	1	2	6	0	2	n/a	1_2.gif
81.003	1	2	2	6	0	4	n/a	2_2.gif
82.003	1	1	2	1	0.198	1	1	1_2.gif
83.003	1	3	2	2	0.217	2	1	3_2.gif
84.003	1	4	2	1	0.218	1	1	4_2.gif
85.003	1	1	2	3	0.196	3	1	1_2.gif
86.003	1	3	2	4	0.165	4	1	3_2.gif
87.003	1	1	2	1	0.168	1	1	1_2.gif
88.005	1	3	2	3	0.055	3	1	3_2.gif
89.005	1	1	2	1	0.04	1	1	1_2.gif
90.005	1	2	2	3	0.021	3	1	2_2.gif
91.005	1	4	2	1	0.007	1	1	4_2.gif
92.005	1	3	2	2	0.007	2	1	3_2.gif
93.005	1	2	2	4	0.006	4	1	2_2.gif
94.005	1	4	2	2	0.608	3	0	4_2.gif
95.005	1	1	2	4	0.427	2	0	1_2.gif
96.005	1	2	0	1	0.331	2	0	2_0.gif
97.005	1	4	0	2	0.172	4	0	4_0.gif
98.005	1	1	0	1	0.317	1	1	1_0.gif
99.005	1	2	0	2	0.333	2	1	2_0.gif
100.005	1	1	0	1	0.371	1	1	1_0.gif
101.005	1	3	0	3	0.399	3	1	3_0.gif
102.005	1	4	0	4	0.236	4	1	4_0.gif
103.005	1	2	0	2	0.214	2	1	2_0.gif
104.005	1	3	0	3	0.396	3	1	3_0.gif
105.005	1	1	0	1	0.262	1	1	1_0.gif
106.005	1	3	0	3	0.34	3	1	3_0.gif
107.005	1	1	0	1	0.363	1	1	1_0.gif
108.005	1	3	0	3	0.283	3	1	3_0.gif
109.006	1	4	0	4	0.383	4	1	4_0.gif
110.006	1	2	0	2	0.309	2	1	2_0.gif
111.006	1	4	0	4	0.399	4	1	4_0.gif
112.006	1	1	2	6	0	2	n/a	1_2.gif
113.006	1	2	2	6	0	4	n/a	2_2.gif
114.006	1	1	2	1	0.243	1	1	1_2.gif
115.006	1	3	2	2	0.217	2	1	3_2.gif
116.006	1	1	2	1	0.089	1	1	1_2.gif
117.006	1	2	2	3	0.111	3	1	2_2.gif
118.006	1	3	2	1	0.018	1	1	3_2.gif
119.006	1	2	2	2	0.043	2	1	2_2.gif
120.006	1	3	2	3	0.025	3	1	3_2.gif
121.006	1	4	2	2	0.007	2	1	4_2.gif
122.006	1	2	2	3	0.006	3	1	2_2.gif
123.006	1	1	2	4	0.006	4	1	1_2.gif
124.006	1	3	2	2	0.007	2	1	3_2.gif
125.006	1	1	2	1	0.007	1	1	1_2.gif
126.006	1	4	2	3	0.007	3	1	4_2.gif
127.006	1	3	2	4	0.607	1	0	3_2.gif
128.006	1	1	0	3	0.426	1	0	1_0.gif
129.006	1	2	0	1	0.007	2	0	2_0.gif
130.007	1	3	0	3	0.466	3	1	3_0.gif
131.007	1	4	0	4	0.404	4	1	4_0.gif
132.007	1	3	0	3	0.443	3	1	3_0.gif
133.007	1	2	0	2	0.298	2	1	2_0.gif
134.007	1	1	0	1	0.299	1	1	1_0.gif
135.007	1	4	0	4	0.255	4	1	4_0.gif
136.007	1	1	0	1	0.387	1	1	1_0.gif
137.007	1	4	0	4	0.421	4	1	4_0.gif
138.007	1	1	0	1	0.318	1	1	1_0.gif
139.007	1	2	0	2	0.368	2	1	2_0.gif
140.007	1	1	0	1	0.383	1	1	1_0.gif
141.007	1	2	0	2	0.313	2	1	2_0.gif
142.007	1	1	0	1	0.299	1	1	1_0.gif
143.007	1	3	0	3	0.493	3	1	3_0.gif
144.007	1	1	2	6	0	1	n/a	1_2.gif
145.007	1	3	2	6	0	3	n/a	3_2.gif
146.007	1	2	2	1	0.167	1	1	2_2.gif
147.007	1	3	2	3	0.109	3	1	3_2.gif
148.007	1	1	2	2	0.114	2	1	1_2.gif
149.007	1	2	2	3	0.151	3	1	2_2.gif
150.007	1	4	2	1	0.006	1	1	4_2.gif
151.007	1	3	2	2	0.006	2	1	3_2.gif
152.007	1	4	2	4	0.008	4	1	4_2.gif
153.007	1	2	2	3	0.006	3	1	2_2.gif
154.007	1	4	2	4	0.006	4	1	4_2.gif
155.007	1	2	2	2	0.006	2	1	2_2.gif
156.007	1	4	2	4	0.005	4	1	4_2.gif
157.007	1	1	2	2	0.006	2	1	1_2.gif
158.007	1	2	2	4	0.083	4	1	2_2.gif
159.007	1	4	2	1	0.006	1	1	4_2.gif
160.007	1	1	0	2	0.006	1	0	1_0.gif
161.007	1	2	0	1	0.006	2	0	2_0.gif
162.007	1	4	0	4	0.526	4	1	4_0.gif
163.007	1	3	0	3	0.274	3	1	3_0.gif
164.007	1	4	0	4	0.463	4	1	4_0.gif
165.007	1	3	0	3	0.356	3	1	3_0.gif
166.007	1	4	0	4	0.369	4	1	4_0.gif
167.007	1	2	0	2	0.365	2	1	2_0.gif
168.007	1	4	0	4	0.4	4	1	4_0.gif
169.007	1	3	0	3	0.35	3	1	3_0.gif
170.007	1	1	0	1	0.358	1	1	1_0.gif
171.007	1	3	0	3	0.37	3	1	3_0.gif
172.007	1	4	0	4	0.279	4	1	4_0.gif
173.007	1	3	0	3	0.375	3	1	3_0.gif
174.007	1	2	0	2	0.386	2	1	2_0.gif
175.007	1	1	0	1	0.333	1	1	1_0.gif
176.008	1	4	2	6	0	2	n/a	4_2.gif
177.008	1	3	2	6	0	1	n/a	3_2.gif
178.008	1	2	2	4	0.18	4	1	2_2.gif
179.008	1	1	2	3	0.089	3	1	1_2.gif
180.008	1	3	2	2	0.1	2	1	3_2.gif
181.008	1	2	2	1	0.02	1	1	2_2.gif
182.008	1	1	2	3	0.116	3	1	1_2.gif
183.008	1	2	2	2	0.107	2	1	2_2.gif
184.008	1	4	2	1	0.086	1	1	4_2.gif
185.008	1	2	2	2	0.006	2	1	2_2.gif
186.008	1	1	2	4	0.053	4	1	1_2.gif
187.008	1	2	2	2	0.077	2	1	2_2.gif
188.008	1	3	2	1	0.166	1	1	3_2.gif
189.008	1	4	2	2	0.222	2	1	4_2.gif
190.008	1	2	2	3	0.09	3	1	2_2.gif
191.008	1	4	2	4	0.012	4	1	4_2.gif
192.008	1	3	0	2	0.062	3	0	3_0.gif
193.008	1	1	0	1	0.318	1	1	1_0.gif
194.008	1	2	0	2	0.23	2	1	2_0.gif
195.008	1	3	0	3	0.411	3	1	3_0.gif
196.008	1	4	0	4	0.348	4	1	4_0.gif
197.008	1	3	0	3	0.319	3	1	3_0.gif
198.008	1	2	0	2	0.354	2	1	2_0.gif
199.008	1	1	0	1	0.377	1	1	1_0.gif
200.008	1	3	0	3	0.376	3	1	3_0.gif
201.008	1	4	0	4	0.257	4	1	4_0.gif
202.008	1	1	0	1	0.241	1	1	1_0.gif
203.008	1	3	0	3	0.449	3	1	3_0.gif
204.009	1	1	0	1	0.375	1	1	1_0.gif
205.009	1	2	0	2	0.323	2	1	2_0.gif
206.009	1	1	0	1	0.364	1	1	1_0.gif
207.009	1	2	0	2	0.372	2	1	2_0.gif
208.01	1	4	2	6	0	1	n/a	4_2.gif
209.01	1	3	2	6	0	2	n/a	3_2.gif
210.01	1	4	2	4	0.181	4	1	4_2.gif
211.01	1	1	2	3	0.123	3	1	1_2.gif
212.01	1	2	2	4	0.266	4	1	2_2.gif
213.01	1	1	2	1	0.12	1	1	1_2.gif
214.01	1	2	2	2	0.037	2	1	2_2.gif
215.01	1	3	2	1	0.022	1	1	3_2.gif
216.01	1	1	2	2	0.006	2	1	1_2.gif
217.01	1	4	2	3	0.005	3	1	4_2.gif
218.01	1	2	2	1	0.005	1	1	2_2.gif
219.01	1	4	2	4	0.018	4	1	4_2.gif
220.01	1	1	2	2	0.006	2	1	1_2.gif
221.01	1	3	2	4	0.005	4	1	3_2.gif
222.01	1	4	2	1	0.005	1	1	4_2.gif
223.01	1	2	2	4	0.719	3	0	2_2.gif
224.01	1	1	0	1	0.873	1	1	1_0.gif
225.01	1	4	0	1	0.007	4	0	4_0.gif
226.01	1	2	0	2	0.463	2	1	2_0.gif
227.01	1	4	0	4	0.375	4	1	4_0.gif
228.01	1	2	0	2	0.375	2	1	2_0.gif
229.01	1	3	0	3	0.454	3	1	3_0.gif
230.01	1	1	0	1	0.28	1	1	1_0.gif
231.01	1	2	0	2	0.235	2	1	2_0.gif
232.01	1	1	0	1	0.435	1	1	1_0.gif
233.01	1	4	0	4	0.399	4	1	4_0.gif
234.01	1	2	0	2	0.35	2	1	2_0.gif
235.01	1	3	0	3	0.347	3	1	3_0.gif
236.01	1	1	0	1	0.343	1	1	1_0.gif
237.01	1	3	0	3	0.462	3	1	3_0.gif
238.01	1	2	0	2	0.428	2	1	2_0.gif
239.01	1	3	0	3	0.307	3	1	3_0.gif
240.01	1	1	2	6	0	2	n/a	1_2.gif
241.01	1	2	2	6	0	3	n/a	2_2.gif
242.01	1	4	2	1	0.173	1	1	4_2.gif
243.01	1	3	2	2	0.131	2	1	3_2.gif
244.01	1	2	2	4	0.111	4	1	2_2.gif
245.01	1	4	2	3	0.068	3	1	4_2.gif
246.01	1	2	2	2	0.042	2	1	2_2.gif
247.01	1	3	2	4	0.019	4	1	3_2.gif
248.01	1	2	2	2	0.007	2	1	2_2.gif
249.01	1	4	2	3	0.006	3	1	4_2.gif
250.01	1	3	2	2	0.006	2	1	3_2.gif
251.01	1	2	2	4	0.007	4	1	2_2.gif
252.01	1	3	2	3	0.007	3	1	3_2.gif
253.01	1	1	2	2	0.007	2	1	1_2.gif
254.01	1	3	2	3	0.007	3	1	3_2.gif
255.01	1	4	2	1	0.007	1	1	4_2.gif
