onset	duration	nback_display	trial_type	response	response_time	correct_response	correct	stim_file
0	1	3	0	3	0.775	3	1	3_0.gif
1	1	2	0	1	0.552	2	0	2_0.gif
2	1	1	0	1	0.752	1	1	1_0.gif
3	1	3	0	3	0.822	3	1	3_0.gif
4	1	2	0	2	0.554	2	1	2_0.gif
5	1	3	0	3	0.461	3	1	3_0.gif
6	1	1	0	1	0.354	1	1	1_0.gif
7	1	2	0	2	0.419	2	1	2_0.gif
8	1	1	0	1	0.393	1	1	1_0.gif
9	1	4	0	4	0.418	4	1	4_0.gif
10	1	2	0	2	0.733	2	1	2_0.gif
11	1	4	0	4	0.529	4	1	4_0.gif
12	1	1	0	1	0.589	1	1	1_0.gif
13	1	2	0	2	0.833	2	1	2_0.gif
14	1	4	0	2	0.003	4	0	4_0.gif
15	1	2	0	2	0.508	2	1	2_0.gif
16	1	1	2	1	0.437	4	0	1_2.gif
17	1	2	2	6	0	2	n/a	2_2.gif
18	1	4	2	1	0.492	1	1	4_2.gif
19	1	1	2	2	0.036	2	1	1_2.gif
20	1	3	2	4	0.003	4	1	3_2.gif
21	1	2	2	3	0.446	1	0	2_2.gif
22	1	4	2	2	0.207	3	0	4_2.gif
23	1	1	2	4	0.352	2	0	1_2.gif
24	1	3	2	3	0.69	4	0	3_2.gif
25	1	4	2	4	0.557	1	0	4_2.gif
26	1	3	2	6	0	3	n/a	3_2.gif
27	1	2	2	6	0	4	n/a	2_2.gif
28	1	1	2	6	0	3	n/a	1_2.gif
29	1	4	2	3	0.12	2	0	4_2.gif
30	1	1	2	1	0.298	1	1	1_2.gif
31	1	2	2	1	0.538	4	0	2_2.gif
32	1	4	0	4	0.068	4	1	4_0.gif
33	1	1	0	4	0.003	1	0	1_0.gif
34	1	3	0	3	0.437	3	1	3_0.gif
35	1	2	0	2	0.4	2	1	2_0.gif
36	1	3	0	3	0.331	3	1	3_0.gif
37	1	2	0	2	0.276	2	1	2_0.gif
38	1	1	0	1	0.497	1	1	1_0.gif
39	1	2	0	2	0.474	2	1	2_0.gif
40	1	4	0	4	0.333	4	1	4_0.gif
41	1	3	0	3	0.477	3	1	3_0.gif
42	1	2	0	2	0.351	2	1	2_0.gif
43	1	4	0	4	0.423	4	1	4_0.gif
44	1	3	0	3	0.302	3	1	3_0.gif
45	1	1	0	1	0.409	1	1	1_0.gif
46	1	2	0	2	0.316	2	1	2_0.gif
47	1	3	0	3	0.373	3	1	3_0.gif
48	1	4	2	6	0	2	n/a	4_2.gif
49	1	1	2	6	0	3	n/a	1_2.gif
50	1	2	2	4	0.316	4	1	2_2.gif
51	1	3	2	1	0.004	1	1	3_2.gif
52	1	2	2	1	0.004	2	0	2_2.gif
53	1	1	2	6	0	3	n/a	1_2.gif
54	1	3	2	6	0	2	n/a	3_2.gif
55	1	1	2	1	0.503	1	1	1_2.gif
56	1	2	2	3	0.136	3	1	2_2.gif
57	1	4	2	2	0.403	1	0	4_2.gif
58	1	2	2	4	0.173	2	0	2_2.gif
59	1	3	2	6	0	4	n/a	3_2.gif
60	1	2	2	6	0	2	n/a	2_2.gif
61	1	4	2	3	0.482	3	1	4_2.gif
62	1	2	2	2	0.004	2	1	2_2.gif
63	1	3	2	2	0.369	4	0	3_2.gif
64.001	1	1	0	1	0.632	1	1	1_0.gif
65.001	1	3	0	3	0.434	3	1	3_0.gif
66.001	1	1	0	1	0.376	1	1	1_0.gif
67.001	1	3	0	3	0.297	3	1	3_0.gif
68.001	1	4	0	4	0.353	4	1	4_0.gif
69.001	1	1	0	1	0.328	1	1	1_0.gif
70.001	1	4	0	4	0.363	4	1	4_0.gif
71.001	1	1	0	1	0.348	1	1	1_0.gif
72.001	1	3	0	3	0.434	3	1	3_0.gif
73.001	1	4	0	6	0	4	n/a	4_0.gif
74.001	1	3	0	3	0.429	3	1	3_0.gif
75.001	1	1	0	1	0.397	1	1	1_0.gif
76.001	1	2	0	2	0.383	2	1	2_0.gif
77.001	1	1	0	1	0.418	1	1	1_0.gif
78.001	1	4	0	4	0.849	4	1	4_0.gif
79.001	1	1	0	6	0	1	n/a	1_0.gif
80.001	1	4	2	1	0.035	4	0	4_2.gif
81.001	1	1	2	6	0	1	n/a	1_2.gif
82.001	1	2	2	6	0	4	n/a	2_2.gif
83.001	1	3	2	1	0.635	1	1	3_2.gif
84.001	1	4	2	2	0.174	2	1	4_2.gif
85.001	1	2	2	4	0.748	3	0	2_2.gif
86.001	1	3	2	2	0.075	4	0	3_2.gif
87.001	1	4	2	3	0.552	2	0	4_2.gif
88.001	1	2	2	6	0	3	n/a	2_2.gif
89.001	1	4	2	6	0	4	n/a	4_2.gif
90.001	1	2	2	6	0	2	n/a	2_2.gif
91.001	1	3	2	4	0.87	4	1	3_2.gif
92.001	1	2	2	4	0.003	2	0	2_2.gif
93.001	1	1	2	3	0.214	3	1	1_2.gif
94.001	1	4	2	1	0.849	2	0	4_2.gif
95.001	1	2	2	4	0.47	1	0	2_2.gif
96.001	1	4	0	4	0.752	4	1	4_0.gif
97.001	1	2	0	2	0.381	2	1	2_0.gif
98.001	1	4	0	4	0.428	4	1	4_0.gif
99.001	1	1	0	6	0	1	n/a	1_0.gif
100.001	1	3	0	3	0.478	3	1	3_0.gif
101.001	1	4	0	4	0.405	4	1	4_0.gif
102.001	1	1	0	1	0.307	1	1	1_0.gif
103.001	1	2	0	2	0.467	2	1	2_0.gif
104.001	1	4	0	4	0.314	4	1	4_0.gif
105.001	1	2	0	2	0.417	2	1	2_0.gif
106.001	1	4	0	4	0.427	4	1	4_0.gif
107.001	1	3	0	3	0.498	3	1	3_0.gif
108.001	1	2	0	2	0.397	2	1	2_0.gif
109.001	1	1	0	1	0.327	1	1	1_0.gif
110.001	1	3	0	3	0.31	3	1	3_0.gif
111.001	1	2	0	2	0.403	2	1	2_0.gif
112.001	1	4	2	4	0.244	3	0	4_2.gif
113.001	1	1	2	6	0	2	n/a	1_2.gif
114.002	1	2	2	4	0.616	4	1	2_2.gif
115.002	1	4	2	1	0.498	1	1	4_2.gif
116.002	1	2	2	2	0.219	2	1	2_2.gif
117.002	1	1	2	1	0.003	4	0	1_2.gif
118.002	1	4	2	6	0	2	n/a	4_2.gif
119.002	1	3	2	6	0	1	n/a	3_2.gif
120.002	1	2	2	3	0.246	4	0	2_2.gif
121.002	1	1	2	6	0	3	n/a	1_2.gif
122.002	1	4	2	6	0	2	n/a	4_2.gif
123.002	1	1	2	1	0.916	1	1	1_2.gif
124.002	1	4	2	1	0.003	4	0	4_2.gif
125.002	1	3	2	6	0	1	n/a	3_2.gif
126.002	1	2	2	4	0.206	4	1	2_2.gif
127.002	1	4	2	3	0.727	3	1	4_2.gif
128.002	1	1	0	2	0.274	1	0	1_0.gif
129.002	1	4	0	1	0.636	4	0	4_0.gif
130.002	1	1	0	4	0.054	1	0	1_0.gif
131.002	1	4	0	1	0.003	4	0	4_0.gif
132.002	1	3	0	3	0.465	3	1	3_0.gif
133.002	1	2	0	2	0.298	2	1	2_0.gif
134.002	1	1	0	1	0.35	1	1	1_0.gif
135.002	1	4	0	4	0.342	4	1	4_0.gif
136.002	1	2	0	2	0.444	2	1	2_0.gif
137.002	1	1	0	1	0.566	1	1	1_0.gif
138.002	1	4	0	4	0.663	4	1	4_0.gif
139.002	1	1	0	6	0	1	n/a	1_0.gif
140.002	1	2	0	2	0.612	2	1	2_0.gif
141.002	1	1	0	1	0.546	1	1	1_0.gif
142.002	1	4	0	4	0.589	4	1	4_0.gif
143.002	1	2	0	2	0.784	2	1	2_0.gif
144.002	1	3	2	6	0	4	n/a	3_2.gif
145.002	1	4	2	6	0	2	n/a	4_2.gif
146.002	1	2	2	3	0.436	3	1	2_2.gif
147.002	1	3	2	4	0.881	4	1	3_2.gif
148.002	1	2	2	4	0.003	2	0	2_2.gif
149.002	1	3	2	3	0.673	3	1	3_2.gif
150.002	1	1	2	2	0.727	2	1	1_2.gif
151.002	1	2	2	3	0.47	3	1	2_2.gif
152.002	1	1	2	1	0.316	1	1	1_2.gif
153.002	1	2	2	2	0.316	2	1	2_2.gif
154.002	1	3	2	3	0.721	1	0	3_2.gif
155.002	1	1	2	1	0.685	2	0	1_2.gif
156.002	1	3	2	6	0	3	n/a	3_2.gif
157.002	1	4	2	1	0.398	1	1	4_2.gif
158.002	1	1	2	3	0.316	3	1	1_2.gif
159.002	1	3	2	1	0.556	4	0	3_2.gif
160.002	1	4	0	4	0.535	4	1	4_0.gif
161.002	1	1	0	1	0.988	1	1	1_0.gif
162.002	1	4	0	1	0.003	4	0	4_0.gif
163.002	1	2	0	2	0.295	2	1	2_0.gif
164.002	1	3	0	3	0.493	3	1	3_0.gif
165.002	1	2	0	2	0.329	2	1	2_0.gif
166.002	1	1	0	1	0.561	1	1	1_0.gif
167.002	1	3	0	3	0.527	3	1	3_0.gif
168.002	1	2	0	2	0.462	2	1	2_0.gif
169.002	1	4	0	4	0.464	4	1	4_0.gif
170.002	1	2	0	2	0.463	2	1	2_0.gif
171.002	1	1	0	1	0.35	1	1	1_0.gif
172.002	1	4	0	4	0.493	4	1	4_0.gif
173.002	1	1	0	6	0	1	n/a	1_0.gif
174.002	1	3	0	3	0.447	3	1	3_0.gif
175.002	1	1	0	1	0.434	1	1	1_0.gif
176.002	1	4	2	6	0	3	n/a	4_2.gif
177.003	1	1	2	6	0	1	n/a	1_2.gif
178.003	1	2	2	4	0.483	4	1	2_2.gif
179.003	1	3	2	1	0.293	1	1	3_2.gif
180.003	1	1	2	1	0.252	2	0	1_2.gif
181.003	1	4	2	2	0.154	3	0	4_2.gif
182.003	1	3	2	6	0	1	n/a	3_2.gif
183.003	1	2	2	4	0.481	4	1	2_2.gif
184.003	1	1	2	3	0.003	3	1	1_2.gif
185.003	1	3	2	1	0.251	2	0	3_2.gif
186.003	1	2	2	3	0.784	1	0	2_2.gif
187.003	1	3	2	6	0	3	n/a	3_2.gif
188.003	1	1	2	1	0.66	2	0	1_2.gif
189.003	1	2	2	6	0	3	n/a	2_2.gif
190.003	1	1	2	1	0.832	1	1	1_2.gif
191.003	1	4	2	2	0.791	2	1	4_2.gif
192.003	1	2	0	4	0.491	2	0	2_0.gif
193.003	1	4	0	2	0.003	4	0	4_0.gif
194.003	1	1	0	6	0	1	n/a	1_0.gif
195.003	1	2	0	2	0.401	2	1	2_0.gif
196.003	1	4	0	4	0.418	4	1	4_0.gif
197.003	1	2	0	2	0.476	2	1	2_0.gif
198.003	1	1	0	1	0.377	1	1	1_0.gif
199.003	1	2	0	2	0.355	2	1	2_0.gif
200.003	1	4	0	4	0.457	4	1	4_0.gif
201.003	1	1	0	1	0.431	1	1	1_0.gif
202.003	1	3	0	3	0.587	3	1	3_0.gif
203.003	1	2	0	2	0.384	2	1	2_0.gif
204.003	1	4	0	4	0.445	4	1	4_0.gif
205.003	1	1	0	1	0.354	1	1	1_0.gif
206.003	1	3	0	3	0.339	3	1	3_0.gif
207.003	1	4	0	4	0.458	4	1	4_0.gif
208.003	1	3	2	6	0	3	n/a	3_2.gif
209.003	1	2	2	6	0	4	n/a	2_2.gif
210.003	1	1	2	3	0.422	3	1	1_2.gif
211.003	1	4	2	2	0.187	2	1	4_2.gif
212.003	1	1	2	2	0.982	1	0	1_2.gif
213.003	1	2	2	2	0.003	4	0	2_2.gif
214.003	1	4	2	2	0.134	1	0	4_2.gif
215.003	1	1	2	4	0.003	2	0	1_2.gif
216.003	1	3	2	6	0	4	n/a	3_2.gif
217.003	1	2	2	1	0.559	1	1	2_2.gif
218.003	1	3	2	3	0.596	3	1	3_2.gif
219.003	1	2	2	2	0.346	2	1	2_2.gif
220.003	1	1	2	3	0.185	3	1	1_2.gif
221.003	1	2	2	3	0.804	2	0	2_2.gif
222.003	1	4	2	1	0.35	1	1	4_2.gif
223.003	1	3	2	6	0	2	n/a	3_2.gif
224.003	1	2	0	4	0.416	2	0	2_0.gif
225.003	1	4	0	2	0.194	4	0	4_0.gif
226.003	1	3	0	3	0.45	3	1	3_0.gif
227.003	1	1	0	6	0	1	n/a	1_0.gif
228.003	1	2	0	2	0.29	2	1	2_0.gif
229.003	1	3	0	3	0.387	3	1	3_0.gif
230.003	1	4	0	4	0.248	4	1	4_0.gif
231.003	1	1	0	1	0.317	1	1	1_0.gif
232.003	1	2	0	2	0.379	2	1	2_0.gif
233.003	1	3	0	3	0.336	3	1	3_0.gif
234.003	1	2	0	2	0.448	2	1	2_0.gif
235.003	1	1	0	1	0.355	1	1	1_0.gif
236.003	1	3	0	3	0.524	3	1	3_0.gif
237.003	1	1	0	1	0.461	1	1	1_0.gif
238.003	1	2	0	2	0.283	2	1	2_0.gif
239.003	1	4	0	4	0.43	4	1	4_0.gif
240.004	1	2	2	6	0	2	n/a	2_2.gif
241.004	1	3	2	3	0.455	4	0	3_2.gif
242.004	1	2	2	2	0.364	2	1	2_2.gif
243.004	1	4	2	4	0.431	3	0	4_2.gif
244.004	1	2	2	2	0.404	2	1	2_2.gif
245.004	1	3	2	3	0.437	4	0	3_2.gif
246.004	1	1	2	1	0.436	2	0	1_2.gif
247.004	1	3	2	3	0.467	3	1	3_2.gif
248.004	1	1	2	1	0.55	1	1	1_2.gif
249.004	1	3	2	3	0.503	3	1	3_2.gif
250.004	1	4	2	4	0.347	1	0	4_2.gif
251.004	1	1	2	1	0.409	3	0	1_2.gif
252.004	1	4	2	4	0.458	4	1	4_2.gif
253.004	1	1	2	1	0.326	1	1	1_2.gif
254.004	1	3	2	3	0.43	4	0	3_2.gif
255.004	1	4	2	4	0.283	1	0	4_2.gif
