onset	duration	nback_display	trial_type	response	response_time	correct_response	correct	stim_file
0	1	3	0	6	0	3	n/a	3_0.gif
1	1	2	0	4	0.041	2	0	2_0.gif
2	1	3	0	2	0.003	3	0	3_0.gif
3	1	2	0	2	0.55	2	1	2_0.gif
4	1	1	0	1	0.651	1	1	1_0.gif
5	1	2	0	2	0.561	2	1	2_0.gif
6	1	4	0	4	0.605	4	1	4_0.gif
7	1	1	0	1	0.615	1	1	1_0.gif
8	1	4	0	4	0.549	4	1	4_0.gif
9	1	1	0	1	0.388	1	1	1_0.gif
10	1	2	0	2	0.603	2	1	2_0.gif
11	1	1	0	1	0.604	1	1	1_0.gif
12	1	2	0	2	0.498	2	1	2_0.gif
13	1	1	0	1	0.425	1	1	1_0.gif
14	1	4	0	4	0.574	4	1	4_0.gif
15	1	2	0	2	0.602	2	1	2_0.gif
16	1	1	2	1	0.416	4	0	1_2.gif
17	1	3	2	6	0	2	n/a	3_2.gif
18	1	4	2	1	0.632	1	1	4_2.gif
19	1	2	2	1	0.003	3	0	2_2.gif
20	1	4	2	4	0.003	4	1	4_2.gif
21	1	1	2	4	0.003	2	0	1_2.gif
22	1	4	2	6	0	4	n/a	4_2.gif
23	1	1	2	1	0.311	1	1	1_2.gif
24	1	2	2	4	0.068	4	1	2_2.gif
25	1	4	2	1	0.026	1	1	4_2.gif
26	1	2	2	4	0.003	2	0	2_2.gif
27	1	1	2	6	0	4	n/a	1_2.gif
28	1	4	2	2	0.719	2	1	4_2.gif
29	1	1	2	2	0.003	1	0	1_2.gif
30	1	2	2	4	0.099	4	1	2_2.gif
31	1	4	2	1	0.528	1	1	4_2.gif
32	1	1	0	2	0.378	1	0	1_0.gif
33	1	4	0	1	0.014	4	0	4_0.gif
34	1	2	0	4	0.004	2	0	2_0.gif
35	1	3	0	3	0.574	3	1	3_0.gif
36	1	1	0	1	0.68	1	1	1_0.gif
37	1	2	0	1	0.003	2	0	2_0.gif
38	1	3	0	3	0.48	3	1	3_0.gif
39	1	2	0	2	0.432	2	1	2_0.gif
40	1	3	0	3	0.833	3	1	3_0.gif
41	1	4	0	3	0.004	4	0	4_0.gif
42	1	3	0	3	0.582	3	1	3_0.gif
43	1	1	0	1	0.649	1	1	1_0.gif
44	1	2	0	2	0.52	2	1	2_0.gif
45	1	1	0	1	0.566	1	1	1_0.gif
46	1	4	0	4	0.543	4	1	4_0.gif
47	1	3	0	3	0.344	3	1	3_0.gif
48	1	4	2	6	0	4	n/a	4_2.gif
49	1	3	2	6	0	3	n/a	3_2.gif
50	1	2	2	4	0.216	4	1	2_2.gif
51	1	1	2	3	0.15	3	1	1_2.gif
52	1	2	2	2	0.169	2	1	2_2.gif
53	1	3	2	1	0.284	1	1	3_2.gif
54	1	2	2	4	0.322	2	0	2_2.gif
55	1	1	2	3	0.223	3	1	1_2.gif
56	1	3	2	2	0.273	2	1	3_2.gif
57	1	1	2	1	0.214	1	1	1_2.gif
58	1	4	2	3	0.424	3	1	4_2.gif
59	1	3	2	4	0.593	1	0	3_2.gif
60	1	2	2	1	0.767	4	0	2_2.gif
61	1	1	2	1	0.004	3	0	1_2.gif
62	1	2	2	2	0.004	2	1	2_2.gif
63	1	3	2	1	0.121	1	1	3_2.gif
64.001	1	4	0	2	0.143	4	0	4_0.gif
65.001	1	2	0	4	0.017	2	0	2_0.gif
66.001	1	3	0	3	0.552	3	1	3_0.gif
67.001	1	1	0	1	0.364	1	1	1_0.gif
68.001	1	2	0	2	0.311	2	1	2_0.gif
69.001	1	1	0	1	0.589	1	1	1_0.gif
70.001	1	3	0	3	0.577	3	1	3_0.gif
71.001	1	4	0	4	0.344	4	1	4_0.gif
72.001	1	1	0	1	0.565	1	1	1_0.gif
73.001	1	4	0	4	0.607	4	1	4_0.gif
74.001	1	1	0	1	0.482	1	1	1_0.gif
75.001	1	3	0	3	0.63	3	1	3_0.gif
76.001	1	2	0	2	0.476	2	1	2_0.gif
77.001	1	1	0	1	0.517	1	1	1_0.gif
78.001	1	4	0	4	0.493	4	1	4_0.gif
79.001	1	1	0	1	0.579	1	1	1_0.gif
80.001	1	4	2	6	0	4	n/a	4_2.gif
81.001	1	1	2	6	0	1	n/a	1_2.gif
82.001	1	4	2	4	0.196	4	1	4_2.gif
83.001	1	1	2	1	0.152	1	1	1_2.gif
84.001	1	4	2	4	0.003	4	1	4_2.gif
85.001	1	3	2	1	0.278	1	1	3_2.gif
86.001	1	4	2	3	0.541	4	0	4_2.gif
87.001	1	2	2	6	0	3	n/a	2_2.gif
88.001	1	3	2	4	0.206	4	1	3_2.gif
89.001	1	2	2	2	0.269	2	1	2_2.gif
90.001	1	4	2	3	0.152	3	1	4_2.gif
91.001	1	2	2	4	0.518	2	0	2_2.gif
92.001	1	3	2	2	0.738	4	0	3_2.gif
93.001	1	2	2	2	0.003	2	1	2_2.gif
94.001	1	1	2	3	0.003	3	1	1_2.gif
95.001	1	4	2	2	0.202	2	1	4_2.gif
96.001	1	3	0	1	0.206	3	0	3_0.gif
97.001	1	4	0	3	0.217	4	0	4_0.gif
98.001	1	1	0	4	0.003	1	0	1_0.gif
99.001	1	2	0	2	0.884	2	1	2_0.gif
100.001	1	1	0	2	0.004	1	0	1_0.gif
101.001	1	3	0	1	0.004	3	0	3_0.gif
102.001	1	1	0	1	0.638	1	1	1_0.gif
103.001	1	4	0	4	0.658	4	1	4_0.gif
104.001	1	2	0	2	0.61	2	1	2_0.gif
105.001	1	4	0	4	0.546	4	1	4_0.gif
106.001	1	2	0	2	0.526	2	1	2_0.gif
107.001	1	4	0	4	0.453	4	1	4_0.gif
108.001	1	2	0	2	0.362	2	1	2_0.gif
109.001	1	4	0	4	0.366	4	1	4_0.gif
110.001	1	1	0	1	0.636	1	1	1_0.gif
111.001	1	4	0	4	0.515	4	1	4_0.gif
112.001	1	2	2	6	0	1	n/a	2_2.gif
113.001	1	4	2	6	0	4	n/a	4_2.gif
114.001	1	2	2	2	0.31	2	1	2_2.gif
115.001	1	1	2	4	0.326	4	1	1_2.gif
116.001	1	2	2	2	0.267	2	1	2_2.gif
117.001	1	4	2	1	0.205	1	1	4_2.gif
118.001	1	3	2	2	0.118	2	1	3_2.gif
119.001	1	2	2	4	0.228	4	1	2_2.gif
120.001	1	1	2	3	0.175	3	1	1_2.gif
121.001	1	4	2	2	0.075	2	1	4_2.gif
122.001	1	2	2	1	0.135	1	1	2_2.gif
123.001	1	4	2	4	0.184	4	1	4_2.gif
124.001	1	3	2	2	0.293	2	1	3_2.gif
125.001	1	1	2	3	0.023	4	0	1_2.gif
126.001	1	2	2	6	0	3	n/a	2_2.gif
127.002	1	1	2	1	0.258	1	1	1_2.gif
128.002	1	4	0	2	0.003	4	0	4_0.gif
129.002	1	1	0	4	0.003	1	0	1_0.gif
130.002	1	3	0	3	0.677	3	1	3_0.gif
131.002	1	4	0	4	0.596	4	1	4_0.gif
132.002	1	3	0	3	0.501	3	1	3_0.gif
133.002	1	1	0	1	0.333	1	1	1_0.gif
134.002	1	4	0	4	0.534	4	1	4_0.gif
135.002	1	2	0	2	0.322	2	1	2_0.gif
136.002	1	4	0	4	0.539	4	1	4_0.gif
137.002	1	3	0	3	0.463	3	1	3_0.gif
138.002	1	4	0	4	0.581	4	1	4_0.gif
139.002	1	2	0	2	0.575	2	1	2_0.gif
140.002	1	1	0	1	0.467	1	1	1_0.gif
141.002	1	4	0	4	0.478	4	1	4_0.gif
142.002	1	1	0	1	0.657	1	1	1_0.gif
143.002	1	2	0	2	0.406	2	1	2_0.gif
144.002	1	1	2	6	0	1	n/a	1_2.gif
145.002	1	3	2	6	0	2	n/a	3_2.gif
146.002	1	4	2	1	0.345	1	1	4_2.gif
147.002	1	2	2	3	0.342	3	1	2_2.gif
148.002	1	3	2	4	0.175	4	1	3_2.gif
149.002	1	4	2	2	0.123	2	1	4_2.gif
150.002	1	2	2	3	0.202	3	1	2_2.gif
151.002	1	3	2	4	0.203	4	1	3_2.gif
152.002	1	2	2	2	0.095	2	1	2_2.gif
153.002	1	4	2	6	0	3	n/a	4_2.gif
154.002	1	1	2	2	0.087	2	1	1_2.gif
155.002	1	2	2	4	0.003	4	1	2_2.gif
156.002	1	1	2	1	0.149	1	1	1_2.gif
157.002	1	2	2	2	0.279	2	1	2_2.gif
158.002	1	3	2	1	0.315	1	1	3_2.gif
159.002	1	2	2	2	0.288	2	1	2_2.gif
160.002	1	3	0	3	0.63	3	1	3_0.gif
161.002	1	2	0	2	0.72	2	1	2_0.gif
162.002	1	4	0	2	0.004	4	0	4_0.gif
163.002	1	1	0	1	0.555	1	1	1_0.gif
164.002	1	3	0	3	0.469	3	1	3_0.gif
165.002	1	1	0	1	0.651	1	1	1_0.gif
166.002	1	2	0	2	0.561	2	1	2_0.gif
167.002	1	4	0	4	0.468	4	1	4_0.gif
168.002	1	2	0	2	0.517	2	1	2_0.gif
169.002	1	4	0	4	0.505	4	1	4_0.gif
170.002	1	2	0	2	0.446	2	1	2_0.gif
171.002	1	3	0	3	0.554	3	1	3_0.gif
172.002	1	4	0	3	0.003	4	0	4_0.gif
173.002	1	1	0	1	0.856	1	1	1_0.gif
174.002	1	4	0	1	0.003	4	0	4_0.gif
175.002	1	2	0	4	0.003	2	0	2_0.gif
176.002	1	3	2	2	0.1	4	0	3_2.gif
177.002	1	2	2	6	0	2	n/a	2_2.gif
178.002	1	3	2	3	0.317	3	1	3_2.gif
179.002	1	1	2	2	0.187	2	1	1_2.gif
180.002	1	3	2	3	0.171	3	1	3_2.gif
181.002	1	2	2	1	0.223	1	1	2_2.gif
182.002	1	3	2	3	0.19	3	1	3_2.gif
183.002	1	1	2	2	0.162	2	1	1_2.gif
184.002	1	3	2	3	0.113	3	1	3_2.gif
185.002	1	2	2	1	0.084	1	1	2_2.gif
186.002	1	4	2	3	0.088	3	1	4_2.gif
187.002	1	3	2	2	0.088	2	1	3_2.gif
188.002	1	2	2	4	0.004	4	1	2_2.gif
189.002	1	3	2	2	0.49	3	0	3_2.gif
190.002	1	2	2	6	0	2	n/a	2_2.gif
191.002	1	1	2	3	0.38	3	1	1_2.gif
192.003	1	2	0	2	0.06	2	1	2_0.gif
193.003	1	4	0	2	0.016	4	0	4_0.gif
194.003	1	1	0	4	0.003	1	0	1_0.gif
195.003	1	4	0	4	0.68	4	1	4_0.gif
196.003	1	1	0	1	0.555	1	1	1_0.gif
197.003	1	2	0	2	0.431	2	1	2_0.gif
198.003	1	1	0	1	0.64	1	1	1_0.gif
199.003	1	2	0	2	0.526	2	1	2_0.gif
200.003	1	1	0	1	0.564	1	1	1_0.gif
201.003	1	4	0	6	0	4	n/a	4_0.gif
202.003	1	2	0	4	0.017	2	0	2_0.gif
203.003	1	1	0	1	0.464	1	1	1_0.gif
204.003	1	3	0	3	0.395	3	1	3_0.gif
205.003	1	4	0	4	0.588	4	1	4_0.gif
206.003	1	2	0	2	0.471	2	1	2_0.gif
207.003	1	4	0	4	0.538	4	1	4_0.gif
208.003	1	1	2	6	0	2	n/a	1_2.gif
209.003	1	4	2	6	0	4	n/a	4_2.gif
210.003	1	1	2	1	0.359	1	1	1_2.gif
211.003	1	2	2	4	0.209	4	1	2_2.gif
212.003	1	4	2	1	0.208	1	1	4_2.gif
213.003	1	2	2	2	0.344	2	1	2_2.gif
214.003	1	1	2	4	0.581	4	1	1_2.gif
215.003	1	4	2	1	0.289	2	0	4_2.gif
216.003	1	1	2	6	0	1	n/a	1_2.gif
217.003	1	2	2	4	0.338	4	1	2_2.gif
218.003	1	4	2	1	0.268	1	1	4_2.gif
219.003	1	1	2	2	0.576	2	1	1_2.gif
220.003	1	4	2	4	0.523	4	1	4_2.gif
221.003	1	2	2	1	0.264	1	1	2_2.gif
222.003	1	3	2	6	0	4	n/a	3_2.gif
223.003	1	1	2	2	0.361	2	1	1_2.gif
224.003	1	2	0	3	0.238	2	0	2_0.gif
225.003	1	3	0	2	0.003	3	0	3_0.gif
226.003	1	2	0	2	0.607	2	1	2_0.gif
227.003	1	3	0	3	0.391	3	1	3_0.gif
228.003	1	4	0	4	0.562	4	1	4_0.gif
229.003	1	3	0	3	0.729	3	1	3_0.gif
230.003	1	1	0	6	0	1	n/a	1_0.gif
231.003	1	2	0	2	0.837	2	1	2_0.gif
232.003	1	1	0	2	0.003	1	0	1_0.gif
233.003	1	4	0	4	0.427	4	1	4_0.gif
234.003	1	3	0	3	0.418	3	1	3_0.gif
235.003	1	4	0	4	0.544	4	1	4_0.gif
236.003	1	3	0	3	0.551	3	1	3_0.gif
237.003	1	2	0	2	0.595	2	1	2_0.gif
238.003	1	1	0	1	0.46	1	1	1_0.gif
239.003	1	2	0	2	0.497	2	1	2_0.gif
240.003	1	3	2	6	0	1	n/a	3_2.gif
241.003	1	2	2	6	0	2	n/a	2_2.gif
242.003	1	1	2	3	0.764	3	1	1_2.gif
243.003	1	3	2	3	0.004	2	0	3_2.gif
244.003	1	1	2	1	0.764	1	1	1_2.gif
245.003	1	4	2	1	0.004	3	0	4_2.gif
246.003	1	3	2	6	0	1	n/a	3_2.gif
247.003	1	2	2	6	0	4	n/a	2_2.gif
248.003	1	1	2	2	0.297	3	0	1_2.gif
249.003	1	2	2	6	0	2	n/a	2_2.gif
250.003	1	3	2	6	0	1	n/a	3_2.gif
251.003	1	4	2	4	0.905	2	0	4_2.gif
252.003	1	2	2	4	0.004	3	0	2_2.gif
253.003	1	3	2	6	0	4	n/a	3_2.gif
254.004	1	1	2	2	0.406	2	1	1_2.gif
255.004	1	2	2	3	0.953	3	1	2_2.gif
