onset	duration	nback_display	trial_type	response	response_time	correct_response	correct	stim_file
0	1	3	0	3	0.767	3	1	3_0.gif
1	1	1	0	1	0.495	1	1	1_0.gif
2	1	3	0	3	0.489	3	1	3_0.gif
3	1	2	0	2	0.434	2	1	2_0.gif
4	1	3	0	3	0.427	3	1	3_0.gif
5	1	4	0	6	0	4	n/a	4_0.gif
6	1	3	0	4	0.092	3	0	3_0.gif
7	1	2	0	2	0.724	2	1	2_0.gif
8	1	1	0	1	0.412	1	1	1_0.gif
9	1	3	0	3	0.395	3	1	3_0.gif
10	1	1	0	1	0.515	1	1	1_0.gif
11	1	2	0	2	0.426	2	1	2_0.gif
12	1	3	0	3	0.473	3	1	3_0.gif
13	1	1	0	1	0.385	1	1	1_0.gif
14	1	3	0	3	0.492	3	1	3_0.gif
15	1	2	0	2	0.383	2	1	2_0.gif
16	1	3	2	3	0.513	3	1	3_2.gif
17.001	1	1	2	6	0	2	n/a	1_2.gif
18.001	1	2	2	6	0	3	n/a	2_2.gif
19.001	1	4	2	3	0.114	1	0	4_2.gif
20.001	1	3	2	1	0.048	2	0	3_2.gif
21.001	1	1	2	2	0.015	4	0	1_2.gif
22.001	1	3	2	4	0.007	3	0	3_2.gif
23.001	1	1	2	3	0.006	1	0	1_2.gif
24.001	1	3	2	1	0.005	3	0	3_2.gif
25.001	1	2	2	3	0.007	1	0	2_2.gif
26.001	1	3	2	1	0.006	3	0	3_2.gif
27.001	1	1	2	3	0.007	2	0	1_2.gif
28.001	1	4	2	6	0	3	n/a	4_2.gif
29.001	1	2	2	6	0	1	n/a	2_2.gif
30.001	1	4	2	4	0.855	4	1	4_2.gif
31.001	1	2	2	4	0.006	2	0	2_2.gif
32.001	1	3	0	3	0.682	3	1	3_0.gif
33.001	1	1	0	1	0.366	1	1	1_0.gif
34.001	1	2	0	2	0.353	2	1	2_0.gif
35.001	1	3	0	3	0.331	3	1	3_0.gif
36.001	1	4	0	4	0.434	4	1	4_0.gif
37.001	1	1	0	1	0.54	1	1	1_0.gif
38.001	1	4	0	4	0.436	4	1	4_0.gif
39.001	1	3	0	3	0.413	3	1	3_0.gif
40.001	1	2	0	2	0.47	2	1	2_0.gif
41.001	1	1	0	1	0.367	1	1	1_0.gif
42.001	1	4	0	4	0.473	4	1	4_0.gif
43.001	1	2	0	2	0.355	2	1	2_0.gif
44.001	1	3	0	3	0.494	3	1	3_0.gif
45.001	1	1	0	1	0.37	1	1	1_0.gif
46.001	1	3	0	3	0.402	3	1	3_0.gif
47.001	1	2	0	2	0.597	2	1	2_0.gif
48.002	1	1	2	6	0	3	n/a	1_2.gif
49.002	1	3	2	6	0	2	n/a	3_2.gif
50.002	1	4	2	1	0.352	1	1	4_2.gif
51.002	1	1	2	3	0.409	3	1	1_2.gif
52.002	1	3	2	4	0.324	4	1	3_2.gif
53.002	1	4	2	1	0.375	1	1	4_2.gif
54.002	1	1	2	3	0.507	3	1	1_2.gif
55.002	1	2	2	4	0.439	4	1	2_2.gif
56.002	1	3	2	1	0.509	1	1	3_2.gif
57.002	1	4	2	2	0.092	2	1	4_2.gif
58.002	1	3	2	3	0.006	3	1	3_2.gif
59.002	1	2	2	4	0.007	4	1	2_2.gif
60.002	1	4	2	3	0.065	3	1	4_2.gif
61.002	1	2	2	2	0.269	2	1	2_2.gif
62.002	1	3	2	4	0.255	4	1	3_2.gif
63.002	1	1	2	2	0.549	2	1	1_2.gif
64.002	1	3	0	3	0.39	3	1	3_0.gif
65.002	1	1	0	1	0.26	1	1	1_0.gif
66.002	1	4	0	4	0.396	4	1	4_0.gif
67.002	1	2	0	2	0.321	2	1	2_0.gif
68.002	1	1	0	1	0.274	1	1	1_0.gif
69.002	1	2	0	2	0.418	2	1	2_0.gif
70.004	1	4	0	4	0.366	4	1	4_0.gif
71.004	1	2	0	2	0.397	2	1	2_0.gif
72.004	1	1	0	1	0.404	1	1	1_0.gif
73.004	1	3	0	3	0.385	3	1	3_0.gif
74.004	1	1	0	1	0.421	1	1	1_0.gif
75.004	1	2	0	2	0.327	2	1	2_0.gif
76.004	1	1	0	1	0.31	1	1	1_0.gif
77.004	1	2	0	2	0.356	2	1	2_0.gif
78.004	1	4	0	4	0.391	4	1	4_0.gif
79.004	1	3	0	3	0.424	3	1	3_0.gif
80.004	1	2	2	6	0	4	n/a	2_2.gif
81.004	1	4	2	6	0	3	n/a	4_2.gif
82.004	1	2	2	2	0.506	2	1	2_2.gif
83.004	1	3	2	4	0.342	4	1	3_2.gif
84.004	1	2	2	2	0.464	2	1	2_2.gif
85.004	1	4	2	3	0.666	3	1	4_2.gif
86.004	1	1	2	2	0.629	2	1	1_2.gif
87.004	1	2	2	4	0.758	4	1	2_2.gif
88.004	1	1	2	2	0.855	1	0	1_2.gif
89.004	1	3	2	2	0.007	2	1	3_2.gif
90.004	1	4	2	6	0	1	n/a	4_2.gif
91.005	1	1	2	3	0.481	3	1	1_2.gif
92.005	1	4	2	4	0.581	4	1	4_2.gif
93.005	1	1	2	1	0.824	1	1	1_2.gif
94.005	1	3	2	1	0.007	4	0	3_2.gif
95.005	1	1	2	6	0	1	n/a	1_2.gif
96.005	1	3	0	3	0.243	3	1	3_0.gif
97.005	1	4	0	4	0.493	4	1	4_0.gif
98.005	1	3	0	3	0.464	3	1	3_0.gif
99.005	1	2	0	2	0.413	2	1	2_0.gif
100.005	1	1	0	1	0.302	1	1	1_0.gif
101.005	1	3	0	3	0.254	3	1	3_0.gif
102.005	1	1	0	1	0.251	1	1	1_0.gif
103.005	1	4	0	4	0.382	4	1	4_0.gif
104.005	1	1	0	1	0.33	1	1	1_0.gif
105.005	1	3	0	3	0.425	3	1	3_0.gif
106.005	1	4	0	4	0.421	4	1	4_0.gif
107.005	1	2	0	2	0.428	2	1	2_0.gif
108.005	1	3	0	3	0.453	3	1	3_0.gif
109.005	1	1	0	1	0.425	1	1	1_0.gif
110.005	1	3	0	3	0.46	3	1	3_0.gif
111.005	1	1	0	1	0.429	1	1	1_0.gif
112.006	1	3	2	6	0	3	n/a	3_2.gif
113.006	1	4	2	6	0	1	n/a	4_2.gif
114.006	1	2	2	3	0.575	3	1	2_2.gif
115.006	1	4	2	4	0.508	4	1	4_2.gif
116.006	1	1	2	2	0.642	2	1	1_2.gif
117.006	1	2	2	4	0.579	4	1	2_2.gif
118.006	1	1	2	1	0.787	1	1	1_2.gif
119.006	1	3	2	2	0.805	2	1	3_2.gif
120.006	1	1	2	2	0.007	1	0	1_2.gif
121.006	1	2	2	3	0.752	3	1	2_2.gif
122.006	1	3	2	2	0.823	1	0	3_2.gif
123.006	1	2	2	2	0.009	2	1	2_2.gif
124.006	1	3	2	3	0.334	3	1	3_2.gif
125.006	1	1	2	2	0.705	2	1	1_2.gif
126.006	1	2	2	1	0.43	3	0	2_2.gif
127.006	1	1	2	2	0.638	1	0	1_2.gif
128.006	1	3	0	3	0.607	3	1	3_0.gif
129.006	1	1	0	1	0.296	1	1	1_0.gif
130.006	1	4	0	4	0.429	4	1	4_0.gif
131.006	1	2	0	2	0.303	2	1	2_0.gif
132.006	1	1	0	1	0.402	1	1	1_0.gif
133.007	1	4	0	4	0.45	4	1	4_0.gif
134.007	1	3	0	3	0.439	3	1	3_0.gif
135.007	1	2	0	2	0.364	2	1	2_0.gif
136.007	1	1	0	1	0.258	1	1	1_0.gif
137.007	1	4	0	4	0.342	4	1	4_0.gif
138.007	1	2	0	2	0.347	2	1	2_0.gif
139.007	1	1	0	1	0.288	1	1	1_0.gif
140.007	1	4	0	4	0.446	4	1	4_0.gif
141.007	1	3	0	3	0.282	3	1	3_0.gif
142.007	1	1	0	1	0.404	1	1	1_0.gif
143.007	1	2	0	2	0.298	2	1	2_0.gif
144.007	1	1	2	6	0	1	n/a	1_2.gif
145.007	1	2	2	6	0	2	n/a	2_2.gif
146.007	1	1	2	1	0.438	1	1	1_2.gif
147.007	1	3	2	2	0.432	2	1	3_2.gif
148.007	1	1	2	1	0.472	1	1	1_2.gif
149.007	1	3	2	3	0.606	3	1	3_2.gif
150.007	1	1	2	6	0	1	n/a	1_2.gif
151.007	1	3	2	1	0.242	3	0	3_2.gif
152.007	1	1	2	3	0.265	1	0	1_2.gif
153.007	1	2	2	6	0	3	n/a	2_2.gif
154.009	1	3	2	6	0	1	n/a	3_2.gif
155.009	1	2	2	1	0.041	2	0	2_2.gif
156.009	1	3	2	3	0.715	3	1	3_2.gif
157.009	1	4	2	2	0.767	2	1	4_2.gif
158.009	1	3	2	4	0.629	3	0	3_2.gif
159.009	1	4	2	3	0.705	4	0	4_2.gif
160.009	1	2	0	2	0.646	2	1	2_0.gif
161.009	1	4	0	4	0.405	4	1	4_0.gif
162.009	1	2	0	2	0.36	2	1	2_0.gif
163.009	1	3	0	3	0.374	3	1	3_0.gif
164.009	1	2	0	2	0.351	2	1	2_0.gif
165.009	1	1	0	1	0.314	1	1	1_0.gif
166.009	1	3	0	3	0.351	3	1	3_0.gif
167.009	1	4	0	4	0.353	4	1	4_0.gif
168.009	1	3	0	3	0.426	3	1	3_0.gif
169.009	1	4	0	4	0.294	4	1	4_0.gif
170.009	1	1	0	1	0.28	1	1	1_0.gif
171.009	1	2	0	2	0.444	2	1	2_0.gif
172.009	1	4	0	4	0.361	4	1	4_0.gif
173.009	1	3	0	3	0.249	3	1	3_0.gif
174.009	1	4	0	4	0.413	4	1	4_0.gif
175.01	1	3	0	3	0.298	3	1	3_0.gif
176.01	1	2	2	6	0	4	n/a	2_2.gif
177.01	1	1	2	6	0	3	n/a	1_2.gif
178.01	1	4	2	2	0.331	2	1	4_2.gif
179.01	1	3	2	1	0.334	1	1	3_2.gif
180.01	1	2	2	4	0.305	4	1	2_2.gif
181.01	1	1	2	3	0.347	3	1	1_2.gif
182.01	1	2	2	4	0.231	2	0	2_2.gif
183.01	1	4	2	2	0.007	1	0	4_2.gif
184.01	1	2	2	6	0	2	n/a	2_2.gif
185.01	1	1	2	4	0.572	4	1	1_2.gif
186.01	1	2	2	2	0.708	2	1	2_2.gif
187.01	1	3	2	1	0.697	1	1	3_2.gif
188.01	1	2	2	2	0.635	2	1	2_2.gif
189.01	1	4	2	3	0.605	3	1	4_2.gif
190.01	1	3	2	2	0.566	2	1	3_2.gif
191.01	1	1	2	4	0.486	4	1	1_2.gif
192.01	1	3	0	3	0.52	3	1	3_0.gif
193.01	1	2	0	2	0.343	2	1	2_0.gif
194.01	1	3	0	3	0.405	3	1	3_0.gif
195.01	1	4	0	4	0.371	4	1	4_0.gif
196.011	1	3	0	3	0.483	3	1	3_0.gif
197.011	1	2	0	2	0.402	2	1	2_0.gif
198.011	1	1	0	1	0.3	1	1	1_0.gif
199.011	1	3	0	3	0.236	3	1	3_0.gif
200.011	1	1	0	1	0.448	1	1	1_0.gif
201.011	1	2	0	2	0.271	2	1	2_0.gif
202.011	1	3	0	3	0.251	3	1	3_0.gif
203.011	1	1	0	1	0.246	1	1	1_0.gif
204.011	1	3	0	3	0.412	3	1	3_0.gif
205.011	1	2	0	1	0.345	2	0	2_0.gif
206.011	1	3	0	3	0.698	3	1	3_0.gif
207.011	1	1	0	1	0.345	1	1	1_0.gif
208.011	1	2	2	2	0.391	3	0	2_2.gif
209.011	1	4	2	6	0	1	n/a	4_2.gif
210.011	1	3	2	2	0.385	2	1	3_2.gif
211.011	1	1	2	4	0.46	4	1	1_2.gif
212.011	1	3	2	3	0.68	3	1	3_2.gif
213.011	1	1	2	1	0.786	1	1	1_2.gif
214.011	1	3	2	3	0.965	3	1	3_2.gif
215.011	1	2	2	3	0.006	1	0	2_2.gif
216.011	1	3	2	1	0.006	3	0	3_2.gif
217.011	1	1	2	2	0.006	2	1	1_2.gif
218.011	1	4	2	3	0.059	3	1	4_2.gif
219.011	1	2	2	1	0.046	1	1	2_2.gif
220.011	1	4	2	4	0.684	4	1	4_2.gif
221.011	1	2	2	2	0.804	2	1	2_2.gif
222.011	1	3	2	6	0	4	n/a	3_2.gif
223.011	1	1	2	6	0	2	n/a	1_2.gif
224.012	1	2	0	2	0.511	2	1	2_0.gif
225.012	1	3	0	3	0.351	3	1	3_0.gif
226.012	1	4	0	4	0.452	4	1	4_0.gif
227.012	1	1	0	1	0.347	1	1	1_0.gif
228.013	1	4	0	4	0.377	4	1	4_0.gif
229.013	1	3	0	3	0.378	3	1	3_0.gif
230.013	1	2	0	2	0.258	2	1	2_0.gif
231.013	1	1	0	1	0.26	1	1	1_0.gif
232.013	1	4	0	4	0.416	4	1	4_0.gif
233.013	1	2	0	2	0.446	2	1	2_0.gif
234.013	1	3	0	3	0.359	3	1	3_0.gif
235.013	1	1	0	1	0.381	1	1	1_0.gif
236.013	1	3	0	3	0.423	3	1	3_0.gif
237.013	1	2	0	2	0.312	2	1	2_0.gif
238.013	1	1	0	1	0.303	1	1	1_0.gif
239.013	1	3	0	3	0.317	3	1	3_0.gif
240.013	1	4	2	6	0	1	n/a	4_2.gif
241.013	1	1	2	6	0	3	n/a	1_2.gif
242.013	1	3	2	4	0.427	4	1	3_2.gif
243.013	1	4	2	1	0.413	1	1	4_2.gif
244.013	1	1	2	3	0.532	3	1	1_2.gif
245.013	1	2	2	1	0.654	4	0	2_2.gif
246.013	1	3	2	6	0	1	n/a	3_2.gif
247.013	1	4	2	6	0	2	n/a	4_2.gif
248.013	1	3	2	3	0.438	3	1	3_2.gif
249.013	1	2	2	4	0.731	4	1	2_2.gif
250.013	1	4	2	6	0	3	n/a	4_2.gif
251.014	1	2	2	2	0.113	2	1	2_2.gif
252.014	1	3	2	4	0.323	4	1	3_2.gif
253.014	1	1	2	2	0.581	2	1	1_2.gif
254.014	1	3	2	3	0.166	3	1	3_2.gif
255.014	1	1	2	6	0	1	n/a	1_2.gif
