onset	duration	nback_display	trial_type	response	response_time	correct_response	correct	stim_file
0	1	3	0	3	0.916	3	1	3_0.gif
1	1	4	0	3	0.003	4	0	4_0.gif
2	1	3	0	3	0.519	3	1	3_0.gif
3	1	2	0	2	0.467	2	1	2_0.gif
4	1	3	0	3	0.424	3	1	3_0.gif
5	1	4	0	4	0.354	4	1	4_0.gif
6	1	3	0	3	0.444	3	1	3_0.gif
7	1	4	0	4	0.292	4	1	4_0.gif
8	1	3	0	3	0.378	3	1	3_0.gif
9	1	4	0	4	0.328	4	1	4_0.gif
10	1	1	0	1	0.45	1	1	1_0.gif
11	1	2	0	2	0.32	2	1	2_0.gif
12	1	1	0	1	0.443	1	1	1_0.gif
13	1	2	0	2	0.338	2	1	2_0.gif
14	1	1	0	1	0.376	1	1	1_0.gif
15	1	2	0	2	0.257	2	1	2_0.gif
16	1	4	2	4	0.579	1	0	4_2.gif
17	1	3	2	6	0	2	n/a	3_2.gif
18	1	4	2	4	0.351	4	1	4_2.gif
19	1	3	2	3	0.272	3	1	3_2.gif
20	1	2	2	6	0	4	n/a	2_2.gif
21	1	1	2	6	0	3	n/a	1_2.gif
22	1	2	2	2	0.056	2	1	2_2.gif
23	1	3	2	1	0.045	1	1	3_2.gif
24	1	1	2	2	0.049	2	1	1_2.gif
25	1	2	2	1	0.029	3	0	2_2.gif
26	1	4	2	3	0.047	1	0	4_2.gif
27	1	1	2	1	0.003	2	0	1_2.gif
28	1	3	2	2	0.003	4	0	3_2.gif
29	1	4	2	4	0.003	1	0	4_2.gif
30	1	2	2	1	0.003	3	0	2_2.gif
31	1	1	2	3	0.003	4	0	1_2.gif
32	1	3	0	4	0.003	3	0	3_0.gif
33	1	4	0	3	0.003	4	0	4_0.gif
34	1	3	0	3	0.383	3	1	3_0.gif
35	1	2	0	2	0.358	2	1	2_0.gif
36	1	3	0	3	0.381	3	1	3_0.gif
37	1	1	0	1	0.378	1	1	1_0.gif
38	1	2	0	2	0.338	2	1	2_0.gif
39	1	1	0	1	0.339	1	1	1_0.gif
40	1	4	0	4	0.455	4	1	4_0.gif
41	1	3	0	3	0.319	3	1	3_0.gif
42	1	2	0	6	0	2	n/a	2_0.gif
43	1	1	0	1	0.406	1	1	1_0.gif
44	1	3	0	3	0.361	3	1	3_0.gif
45	1	1	0	1	0.448	1	1	1_0.gif
46	1	3	0	3	0.427	3	1	3_0.gif
47	1	1	0	1	0.391	1	1	1_0.gif
48	1	3	2	3	0.373	3	1	3_2.gif
49	1	4	2	6	0	1	n/a	4_2.gif
50	1	3	2	3	0.265	3	1	3_2.gif
51	1	2	2	4	0.184	4	1	2_2.gif
52	1	4	2	3	0.044	3	1	4_2.gif
53	1	2	2	2	0.042	2	1	2_2.gif
54	1	4	2	4	0.004	4	1	4_2.gif
55	1	2	2	2	0.042	2	1	2_2.gif
56	1	4	2	4	0.089	4	1	4_2.gif
57	1	3	2	2	0.098	2	1	3_2.gif
58	1	4	2	4	0.121	4	1	4_2.gif
59	1	3	2	3	0.096	3	1	3_2.gif
60	1	4	2	4	0.079	4	1	4_2.gif
61	1	3	2	3	0.207	3	1	3_2.gif
62	1	1	2	4	0.256	4	1	1_2.gif
63	1	4	2	3	0.271	3	1	4_2.gif
64.001	1	2	0	1	0.233	2	0	2_0.gif
65.001	1	4	0	2	0.199	4	0	4_0.gif
66.001	1	2	0	4	0.027	2	0	2_0.gif
67.001	1	1	0	1	0.334	1	1	1_0.gif
68.001	1	4	0	4	0.309	4	1	4_0.gif
69.001	1	3	0	3	0.349	3	1	3_0.gif
70.001	1	4	0	4	0.385	4	1	4_0.gif
71.001	1	2	0	6	0	2	n/a	2_0.gif
72.001	1	1	0	1	0.326	1	1	1_0.gif
73.001	1	2	0	2	0.408	2	1	2_0.gif
74.001	1	3	0	3	0.296	3	1	3_0.gif
75.001	1	1	0	1	0.429	1	1	1_0.gif
76.001	1	2	0	2	0.372	2	1	2_0.gif
77.001	1	4	0	4	0.333	4	1	4_0.gif
78.001	1	2	0	2	0.397	2	1	2_0.gif
79.001	1	3	0	3	0.388	3	1	3_0.gif
80.001	1	2	2	6	0	2	n/a	2_2.gif
81.001	1	4	2	6	0	3	n/a	4_2.gif
82.001	1	1	2	2	0.145	2	1	1_2.gif
83.001	1	2	2	4	0.138	4	1	2_2.gif
84.001	1	1	2	2	0.017	1	0	1_2.gif
85.001	1	3	2	1	0.003	2	0	3_2.gif
86.001	1	4	2	2	0.003	1	0	4_2.gif
87.001	1	1	2	3	0.003	3	1	1_2.gif
88.001	1	3	2	4	0.003	4	1	3_2.gif
89.001	1	2	2	1	0.003	1	1	2_2.gif
90.001	1	1	2	3	0.003	3	1	1_2.gif
91.001	1	3	2	2	0.004	2	1	3_2.gif
92.001	1	2	2	1	0.075	1	1	2_2.gif
93.001	1	4	2	3	0.214	3	1	4_2.gif
94.001	1	1	2	2	0.103	2	1	1_2.gif
95.001	1	2	2	4	0.077	4	1	2_2.gif
96.001	1	4	0	1	0.004	4	0	4_0.gif
97.001	1	1	0	4	0.003	1	0	1_0.gif
98.001	1	2	0	6	0	2	n/a	2_0.gif
99.001	1	1	0	1	0.422	1	1	1_0.gif
100.001	1	4	0	4	0.403	4	1	4_0.gif
101.001	1	1	0	1	0.4	1	1	1_0.gif
102.001	1	3	0	3	0.355	3	1	3_0.gif
103.001	1	4	0	4	0.358	4	1	4_0.gif
104.001	1	2	0	2	0.361	2	1	2_0.gif
105.001	1	3	0	3	0.5	3	1	3_0.gif
106.001	1	1	0	1	0.343	1	1	1_0.gif
107.001	1	3	0	3	0.421	3	1	3_0.gif
108.001	1	1	0	1	0.627	1	1	1_0.gif
109.001	1	3	0	3	0.432	3	1	3_0.gif
110.001	1	4	0	4	0.34	4	1	4_0.gif
111.001	1	2	0	2	0.374	2	1	2_0.gif
112.001	1	4	2	6	0	4	n/a	4_2.gif
113.001	1	1	2	6	0	2	n/a	1_2.gif
114.001	1	3	2	4	0.006	4	1	3_2.gif
115.001	1	1	2	1	0.004	1	1	1_2.gif
116.001	1	2	2	3	0.004	3	1	2_2.gif
117.001	1	1	2	1	0.004	1	1	1_2.gif
118.001	1	2	2	2	0.004	2	1	2_2.gif
119.001	1	1	2	1	0.004	1	1	1_2.gif
120.001	1	3	2	2	0.004	2	1	3_2.gif
121.001	1	4	2	1	0.011	1	1	4_2.gif
122.001	1	2	2	3	0.003	3	1	2_2.gif
123.001	1	3	2	4	0.003	4	1	3_2.gif
124.001	1	1	2	2	0.004	2	1	1_2.gif
125.001	1	4	2	3	0.004	3	1	4_2.gif
126.001	1	3	2	1	0.004	1	1	3_2.gif
127.001	1	1	2	4	0.003	4	1	1_2.gif
128.002	1	2	0	2	0.695	2	1	2_0.gif
129.002	1	3	0	3	0.47	3	1	3_0.gif
130.002	1	4	0	4	0.34	4	1	4_0.gif
131.002	1	3	0	3	0.375	3	1	3_0.gif
132.002	1	1	0	1	0.368	1	1	1_0.gif
133.002	1	2	0	2	0.332	2	1	2_0.gif
134.002	1	4	0	4	0.307	4	1	4_0.gif
135.002	1	1	0	1	0.393	1	1	1_0.gif
136.002	1	2	0	6	0	2	n/a	2_0.gif
137.002	1	1	0	1	0.407	1	1	1_0.gif
138.002	1	2	0	2	0.334	2	1	2_0.gif
139.002	1	1	0	1	0.393	1	1	1_0.gif
140.002	1	3	0	3	0.406	3	1	3_0.gif
141.002	1	4	0	4	0.317	4	1	4_0.gif
142.002	1	3	0	3	0.39	3	1	3_0.gif
143.002	1	2	0	2	0.382	2	1	2_0.gif
144.002	1	1	2	1	0.324	3	0	1_2.gif
145.002	1	2	2	6	0	2	n/a	2_2.gif
146.002	1	3	2	1	0.215	1	1	3_2.gif
147.002	1	2	2	2	0.151	2	1	2_2.gif
148.002	1	3	2	3	0.098	3	1	3_2.gif
149.002	1	1	2	2	0.011	2	1	1_2.gif
150.002	1	2	2	3	0.04	3	1	2_2.gif
151.002	1	4	2	1	0.018	1	1	4_2.gif
152.002	1	2	2	2	0.003	2	1	2_2.gif
153.002	1	3	2	4	0.003	4	1	3_2.gif
154.002	1	4	2	2	0.003	2	1	4_2.gif
155.002	1	2	2	3	0.003	3	1	2_2.gif
156.002	1	4	2	4	0.019	4	1	4_2.gif
157.002	1	2	2	2	0.003	2	1	2_2.gif
158.002	1	4	2	4	0.003	4	1	4_2.gif
159.002	1	1	2	2	0.003	2	1	1_2.gif
160.002	1	2	0	4	0.008	2	0	2_0.gif
161.002	1	1	0	1	0.481	1	1	1_0.gif
162.002	1	4	0	4	0.427	4	1	4_0.gif
163.002	1	2	0	2	0.366	2	1	2_0.gif
164.002	1	3	0	3	0.346	3	1	3_0.gif
165.002	1	2	0	2	0.329	2	1	2_0.gif
166.002	1	3	0	3	0.395	3	1	3_0.gif
167.002	1	4	0	4	0.4	4	1	4_0.gif
168.002	1	3	0	3	0.381	3	1	3_0.gif
169.002	1	4	0	4	0.336	4	1	4_0.gif
170.002	1	2	0	2	0.363	2	1	2_0.gif
171.002	1	1	0	1	0.325	1	1	1_0.gif
172.002	1	4	0	4	0.296	4	1	4_0.gif
173.002	1	2	0	2	0.337	2	1	2_0.gif
174.002	1	1	0	1	0.255	1	1	1_0.gif
175.002	1	3	0	3	0.409	3	1	3_0.gif
176.002	1	4	2	4	0.364	1	0	4_2.gif
177.002	1	3	2	6	0	3	n/a	3_2.gif
178.002	1	2	2	4	0.156	4	1	2_2.gif
179.002	1	1	2	3	0.115	3	1	1_2.gif
180.002	1	4	2	2	0.003	2	1	4_2.gif
181.002	1	3	2	1	0.003	1	1	3_2.gif
182.002	1	2	2	4	0.004	4	1	2_2.gif
183.002	1	1	2	3	0.003	3	1	1_2.gif
184.002	1	3	2	2	0.003	2	1	3_2.gif
185.002	1	2	2	1	0.004	1	1	2_2.gif
186.002	1	1	2	3	0.004	3	1	1_2.gif
187.002	1	2	2	2	0.003	2	1	2_2.gif
188.002	1	4	2	1	0.007	1	1	4_2.gif
189.002	1	2	2	2	0.005	2	1	2_2.gif
190.002	1	1	2	4	0.004	4	1	1_2.gif
191.002	1	2	2	1	0.004	2	0	2_2.gif
192.003	1	4	0	6	0	4	n/a	4_0.gif
193.003	1	1	0	1	0.481	1	1	1_0.gif
194.003	1	4	0	4	0.291	4	1	4_0.gif
195.003	1	3	0	3	0.405	3	1	3_0.gif
196.003	1	4	0	4	0.392	4	1	4_0.gif
197.003	1	3	0	3	0.412	3	1	3_0.gif
198.003	1	2	0	2	0.465	2	1	2_0.gif
199.003	1	3	0	3	0.294	3	1	3_0.gif
200.003	1	4	0	4	0.307	4	1	4_0.gif
201.003	1	3	0	3	0.373	3	1	3_0.gif
202.003	1	4	0	3	0.307	4	0	4_0.gif
203.003	1	3	0	3	0.358	3	1	3_0.gif
204.003	1	4	0	4	0.356	4	1	4_0.gif
205.003	1	1	0	1	0.386	1	1	1_0.gif
206.003	1	2	0	2	0.371	2	1	2_0.gif
207.003	1	1	0	1	0.549	1	1	1_0.gif
208.003	1	2	2	6	0	2	n/a	2_2.gif
209.003	1	1	2	6	0	1	n/a	1_2.gif
210.003	1	2	2	2	0.184	2	1	2_2.gif
211.003	1	4	2	1	0.107	1	1	4_2.gif
212.003	1	3	2	2	0.003	2	1	3_2.gif
213.003	1	4	2	1	0.003	4	0	4_2.gif
214.003	1	3	2	4	0.003	3	0	3_2.gif
215.003	1	2	2	3	0.003	4	0	2_2.gif
216.003	1	1	2	4	0.003	3	0	1_2.gif
217.003	1	2	2	3	0.003	2	0	2_2.gif
218.003	1	3	2	2	0.003	1	0	3_2.gif
219.003	1	1	2	1	0.003	2	0	1_2.gif
220.003	1	2	2	6	0	3	n/a	2_2.gif
221.003	1	4	2	4	0.41	1	0	4_2.gif
222.003	1	1	2	6	0	2	n/a	1_2.gif
223.003	1	3	2	4	0.668	4	1	3_2.gif
224.003	1	4	0	4	0.649	4	1	4_0.gif
225.003	1	2	0	2	0.632	2	1	2_0.gif
226.003	1	1	0	1	0.579	1	1	1_0.gif
227.003	1	3	0	3	0.608	3	1	3_0.gif
228.003	1	4	0	4	0.639	4	1	4_0.gif
229.003	1	3	0	3	0.548	3	1	3_0.gif
230.003	1	2	0	2	0.48	2	1	2_0.gif
231.003	1	3	0	3	0.389	3	1	3_0.gif
232.003	1	1	0	1	0.41	1	1	1_0.gif
233.003	1	2	0	2	0.366	2	1	2_0.gif
234.003	1	1	0	1	0.51	1	1	1_0.gif
235.003	1	4	0	4	0.455	4	1	4_0.gif
236.003	1	3	0	3	0.46	3	1	3_0.gif
237.003	1	2	0	2	0.379	2	1	2_0.gif
238.003	1	1	0	1	0.296	1	1	1_0.gif
239.003	1	3	0	3	0.355	3	1	3_0.gif
240.003	1	1	2	1	0.715	1	1	1_2.gif
241.003	1	3	2	6	0	3	n/a	3_2.gif
242.003	1	1	2	1	0.104	1	1	1_2.gif
243.003	1	3	2	3	0.099	3	1	3_2.gif
244.003	1	4	2	1	0.185	1	1	4_2.gif
245.003	1	3	2	3	0.202	3	1	3_2.gif
246.003	1	2	2	4	0.12	4	1	2_2.gif
247.003	1	4	2	3	0.14	3	1	4_2.gif
248.003	1	2	2	2	0.109	2	1	2_2.gif
249.003	1	4	2	4	0.163	4	1	4_2.gif
250.003	1	2	2	2	0.174	2	1	2_2.gif
251.003	1	4	2	4	0.05	4	1	4_2.gif
252.003	1	3	2	2	0.122	2	1	3_2.gif
253.003	1	4	2	4	0.058	4	1	4_2.gif
254.003	1	3	2	3	0.046	3	1	3_2.gif
255.003	1	4	2	4	0.034	4	1	4_2.gif
