onset	duration	nback_display	trial_type	response	response_time	correct_response	correct	stim_file
0	1	3	0	3	0.608	3	1	3_0.gif
1	1	2	0	2	0.432	2	1	2_0.gif
2	1	3	0	3	0.443	3	1	3_0.gif
3	1	2	0	2	0.289	2	1	2_0.gif
4	1	3	0	3	0.328	3	1	3_0.gif
5	1	4	0	4	0.65	4	1	4_0.gif
6	1	2	0	2	0.541	2	1	2_0.gif
7	1	1	0	1	0.52	1	1	1_0.gif
8	1	4	0	4	0.497	4	1	4_0.gif
9	1	2	0	2	0.336	2	1	2_0.gif
10	1	4	0	4	0.529	4	1	4_0.gif
11	1	1	0	1	0.582	1	1	1_0.gif
12	1	2	0	2	0.432	2	1	2_0.gif
13.001	1	1	0	1	0.658	1	1	1_0.gif
14.001	1	2	0	2	0.353	2	1	2_0.gif
15.001	1	1	0	1	0.488	1	1	1_0.gif
16.001	1	2	2	6	0	2	n/a	2_2.gif
17.001	1	4	2	6	0	1	n/a	4_2.gif
18.001	1	2	2	2	0.866	2	1	2_2.gif
19.001	1	3	2	2	0.003	4	0	3_2.gif
20.001	1	2	2	2	0.435	2	1	2_2.gif
21.001	1	1	2	3	0.219	3	1	1_2.gif
22.001	1	4	2	2	0.343	2	1	4_2.gif
23.001	1	1	2	1	0.406	1	1	1_2.gif
24.001	1	2	2	4	0.329	4	1	2_2.gif
25.001	1	3	2	1	0.615	1	1	3_2.gif
26.001	1	4	2	2	0.419	2	1	4_2.gif
27.001	1	3	2	3	0.379	3	1	3_2.gif
28.001	1	2	2	4	0.372	4	1	2_2.gif
29.001	1	1	2	3	0.683	3	1	1_2.gif
30.001	1	4	2	6	0	2	n/a	4_2.gif
31.001	1	1	2	6	0	1	n/a	1_2.gif
32.002	1	2	0	2	0.91	2	1	2_0.gif
33.002	1	4	0	2	0.003	4	0	4_0.gif
34.002	1	1	0	1	0.656	1	1	1_0.gif
35.002	1	4	0	4	0.474	4	1	4_0.gif
36.002	1	3	0	3	0.493	3	1	3_0.gif
37.002	1	4	0	4	0.459	4	1	4_0.gif
38.002	1	1	0	1	0.569	1	1	1_0.gif
39.002	1	2	0	2	0.366	2	1	2_0.gif
40.002	1	3	0	3	0.368	3	1	3_0.gif
41.002	1	2	0	2	0.424	2	1	2_0.gif
42.002	1	4	0	4	0.48	4	1	4_0.gif
43.002	1	3	0	3	0.355	3	1	3_0.gif
44.002	1	2	0	2	0.41	2	1	2_0.gif
45.002	1	1	0	1	0.563	1	1	1_0.gif
46.002	1	2	0	2	0.411	2	1	2_0.gif
47.002	1	1	0	1	0.478	1	1	1_0.gif
48.002	1	4	2	6	0	2	n/a	4_2.gif
49.002	1	3	2	6	0	1	n/a	3_2.gif
50.002	1	1	2	4	0.636	4	1	1_2.gif
51.002	1	3	2	3	0.483	3	1	3_2.gif
52.002	1	4	2	1	0.404	1	1	4_2.gif
53.002	1	1	2	3	0.406	3	1	1_2.gif
54.002	1	3	2	4	0.343	4	1	3_2.gif
55.002	1	4	2	1	0.38	1	1	4_2.gif
56.002	1	3	2	3	0.484	3	1	3_2.gif
57.002	1	2	2	4	0.706	4	1	2_2.gif
58.002	1	4	2	2	0.659	3	0	4_2.gif
59.002	1	1	2	6	0	2	n/a	1_2.gif
60.002	1	2	2	4	0.29	4	1	2_2.gif
61.002	1	4	2	2	0.429	1	0	4_2.gif
62.002	1	2	2	2	0.59	2	1	2_2.gif
63.002	1	3	2	3	0.787	4	0	3_2.gif
64.002	1	1	0	6	0	1	n/a	1_0.gif
65.002	1	3	0	3	0.424	3	1	3_0.gif
66.002	1	1	0	1	0.492	1	1	1_0.gif
67.002	1	4	0	4	0.538	4	1	4_0.gif
68.002	1	2	0	2	0.396	2	1	2_0.gif
69.002	1	4	0	4	0.444	4	1	4_0.gif
70.002	1	1	0	1	0.48	1	1	1_0.gif
71.002	1	3	0	3	0.42	3	1	3_0.gif
72.002	1	1	0	1	0.469	1	1	1_0.gif
73.002	1	3	0	3	0.359	3	1	3_0.gif
74.002	1	4	0	4	0.499	4	1	4_0.gif
75.002	1	2	0	2	0.471	2	1	2_0.gif
76.002	1	1	0	1	0.538	1	1	1_0.gif
77.002	1	3	0	3	0.454	3	1	3_0.gif
78.002	1	1	0	1	0.512	1	1	1_0.gif
79.002	1	3	0	3	0.329	3	1	3_0.gif
80.003	1	1	2	6	0	1	n/a	1_2.gif
81.003	1	2	2	6	0	3	n/a	2_2.gif
82.003	1	4	2	1	0.748	1	1	4_2.gif
83.003	1	1	2	2	0.54	2	1	1_2.gif
84.003	1	4	2	4	0.432	4	1	4_2.gif
85.003	1	1	2	1	0.466	1	1	1_2.gif
86.003	1	3	2	4	0.181	4	1	3_2.gif
87.003	1	2	2	1	0.205	1	1	2_2.gif
88.003	1	3	2	3	0.286	3	1	3_2.gif
89.003	1	4	2	2	0.213	2	1	4_2.gif
90.003	1	1	2	4	0.959	3	0	1_2.gif
91.003	1	3	2	4	0.003	4	1	3_2.gif
92.003	1	2	2	4	0.348	1	0	2_2.gif
93.003	1	3	2	3	0.487	3	1	3_2.gif
94.003	1	1	2	6	0	2	n/a	1_2.gif
95.003	1	4	2	2	0.479	3	0	4_2.gif
96.003	1	1	0	1	0.757	1	1	1_0.gif
97.003	1	4	0	4	0.521	4	1	4_0.gif
98.003	1	1	0	1	0.5	1	1	1_0.gif
99.003	1	4	0	4	0.596	4	1	4_0.gif
100.003	1	1	0	1	0.472	1	1	1_0.gif
101.003	1	3	0	3	0.411	3	1	3_0.gif
102.003	1	2	0	2	0.352	2	1	2_0.gif
103.003	1	3	0	3	0.304	3	1	3_0.gif
104.003	1	1	0	1	0.483	1	1	1_0.gif
105.003	1	2	0	2	0.455	2	1	2_0.gif
106.003	1	1	0	1	0.367	1	1	1_0.gif
107.003	1	2	0	2	0.428	2	1	2_0.gif
108.003	1	4	0	4	0.608	4	1	4_0.gif
109.003	1	2	0	2	0.411	2	1	2_0.gif
110.003	1	4	0	4	0.297	4	1	4_0.gif
111.003	1	1	0	1	0.492	1	1	1_0.gif
112.003	1	4	2	6	0	4	n/a	4_2.gif
113.003	1	2	2	6	0	1	n/a	2_2.gif
114.003	1	4	2	4	0.715	4	1	4_2.gif
115.003	1	2	2	2	0.663	2	1	2_2.gif
116.003	1	1	2	4	0.533	4	1	1_2.gif
117.003	1	2	2	2	0.556	2	1	2_2.gif
118.004	1	3	2	1	0.707	1	1	3_2.gif
119.004	1	4	2	2	0.744	2	1	4_2.gif
120.004	1	1	2	3	0.723	3	1	1_2.gif
121.004	1	2	2	2	0.996	4	0	2_2.gif
122.004	1	3	2	2	0.002	1	0	3_2.gif
123.004	1	4	2	4	0.232	2	0	4_2.gif
124.004	1	2	2	6	0	3	n/a	2_2.gif
125.004	1	4	2	6	0	4	n/a	4_2.gif
126.004	1	1	2	4	0.183	2	0	1_2.gif
127.004	1	3	2	2	0.177	4	0	3_2.gif
128.004	1	4	0	1	0.379	4	0	4_0.gif
129.004	1	3	0	4	0.083	3	0	3_0.gif
130.004	1	1	0	1	0.517	1	1	1_0.gif
131.004	1	4	0	4	0.609	4	1	4_0.gif
132.004	1	1	0	1	0.597	1	1	1_0.gif
133.004	1	4	0	4	0.519	4	1	4_0.gif
134.004	1	2	0	2	0.342	2	1	2_0.gif
135.004	1	1	0	1	0.534	1	1	1_0.gif
136.004	1	4	0	4	0.506	4	1	4_0.gif
137.004	1	1	0	1	0.574	1	1	1_0.gif
138.004	1	4	0	4	0.481	4	1	4_0.gif
139.004	1	3	0	3	0.445	3	1	3_0.gif
140.004	1	4	0	4	0.485	4	1	4_0.gif
141.004	1	2	0	2	0.504	2	1	2_0.gif
142.004	1	3	0	3	0.397	3	1	3_0.gif
143.004	1	1	0	1	0.519	1	1	1_0.gif
144.004	1	4	2	6	0	3	n/a	4_2.gif
145.004	1	3	2	6	0	1	n/a	3_2.gif
146.004	1	2	2	4	0.972	4	1	2_2.gif
147.004	1	3	2	4	0.003	3	0	3_2.gif
148.004	1	2	2	3	0.003	2	0	2_2.gif
149.004	1	4	2	2	0.003	3	0	4_2.gif
150.004	1	1	2	3	0.003	2	0	1_2.gif
151.004	1	2	2	4	0.077	4	1	2_2.gif
152.004	1	1	2	2	0.283	1	0	1_2.gif
153.004	1	2	2	2	0.399	2	1	2_2.gif
154.004	1	3	2	3	0.469	1	0	3_2.gif
155.004	1	4	2	6	0	2	n/a	4_2.gif
156.005	1	3	2	6	0	3	n/a	3_2.gif
157.005	1	2	2	4	0.922	4	1	2_2.gif
158.005	1	1	2	4	0.002	3	0	1_2.gif
159.005	1	2	2	2	0.519	2	1	2_2.gif
160.005	1	4	0	4	0.742	4	1	4_0.gif
161.005	1	2	0	2	0.396	2	1	2_0.gif
162.005	1	4	0	4	0.794	4	1	4_0.gif
163.005	1	2	0	2	0.444	2	1	2_0.gif
164.005	1	4	0	4	0.316	4	1	4_0.gif
165.005	1	2	0	2	0.388	2	1	2_0.gif
166.005	1	3	0	3	0.388	3	1	3_0.gif
167.005	1	4	0	4	0.361	4	1	4_0.gif
168.005	1	1	0	1	0.6	1	1	1_0.gif
169.005	1	4	0	4	0.525	4	1	4_0.gif
170.005	1	2	0	2	0.437	2	1	2_0.gif
171.005	1	4	0	4	0.441	4	1	4_0.gif
172.005	1	2	0	2	0.409	2	1	2_0.gif
173.005	1	1	0	1	0.662	1	1	1_0.gif
174.005	1	3	0	3	0.515	3	1	3_0.gif
175.005	1	2	0	2	0.464	2	1	2_0.gif
176.006	1	3	2	3	0.505	3	1	3_2.gif
177.006	1	2	2	6	0	2	n/a	2_2.gif
178.006	1	4	2	6	0	3	n/a	4_2.gif
179.006	1	3	2	3	0.032	2	0	3_2.gif
180.006	1	2	2	2	0.129	4	0	2_2.gif
181.006	1	3	2	4	0.154	3	0	3_2.gif
182.006	1	2	2	3	0.226	2	0	2_2.gif
183.006	1	3	2	2	0.289	3	0	3_2.gif
184.006	1	4	2	3	0.373	2	0	4_2.gif
185.006	1	2	2	2	0.376	3	0	2_2.gif
186.006	1	1	2	4	0.382	4	1	1_2.gif
187.006	1	4	2	2	0.444	2	1	4_2.gif
188.006	1	2	2	1	0.456	1	1	2_2.gif
189.006	1	4	2	4	0.903	4	1	4_2.gif
190.006	1	1	2	4	0.003	2	0	1_2.gif
191.006	1	2	2	6	0	4	n/a	2_2.gif
192.006	1	1	0	2	0.615	1	0	1_0.gif
193.006	1	2	0	2	0.787	2	1	2_0.gif
194.006	1	1	0	1	0.67	1	1	1_0.gif
195.006	1	2	0	2	0.361	2	1	2_0.gif
196.006	1	4	0	4	0.473	4	1	4_0.gif
197.006	1	2	0	2	0.356	2	1	2_0.gif
198.006	1	3	0	3	0.405	3	1	3_0.gif
199.006	1	2	0	2	0.374	2	1	2_0.gif
200.006	1	1	0	1	0.536	1	1	1_0.gif
201.006	1	4	0	4	0.427	4	1	4_0.gif
202.006	1	1	0	1	0.668	1	1	1_0.gif
203.006	1	2	0	2	0.522	2	1	2_0.gif
204.006	1	3	0	3	0.389	3	1	3_0.gif
205.006	1	4	0	4	0.457	4	1	4_0.gif
206.006	1	3	0	3	0.409	3	1	3_0.gif
207.006	1	2	0	2	0.364	2	1	2_0.gif
208.006	1	1	2	6	0	3	n/a	1_2.gif
209.006	1	4	2	6	0	2	n/a	4_2.gif
210.006	1	1	2	1	0.563	1	1	1_2.gif
211.006	1	2	2	4	0.422	4	1	2_2.gif
212.006	1	4	2	1	0.422	1	1	4_2.gif
213.006	1	1	2	2	0.325	2	1	1_2.gif
214.006	1	4	2	4	0.4	4	1	4_2.gif
215.006	1	3	2	1	0.357	1	1	3_2.gif
216.007	1	4	2	3	0.888	4	0	4_2.gif
217.007	1	1	2	3	0.003	3	1	1_2.gif
218.007	1	2	2	4	0.36	4	1	2_2.gif
219.007	1	3	2	1	0.407	1	1	3_2.gif
220.007	1	2	2	2	0.448	2	1	2_2.gif
221.007	1	4	2	3	0.504	3	1	4_2.gif
222.007	1	3	2	4	0.826	2	0	3_2.gif
223.007	1	2	2	4	0.003	4	1	2_2.gif
224.007	1	1	0	1	0.862	1	1	1_0.gif
225.007	1	2	0	1	0.003	2	0	2_0.gif
226.007	1	1	0	1	0.462	1	1	1_0.gif
227.007	1	4	0	4	0.498	4	1	4_0.gif
228.007	1	3	0	3	0.292	3	1	3_0.gif
229.007	1	1	0	1	0.478	1	1	1_0.gif
230.007	1	3	0	3	0.392	3	1	3_0.gif
231.007	1	4	0	4	0.493	4	1	4_0.gif
232.007	1	1	0	1	0.455	1	1	1_0.gif
233.007	1	3	0	3	0.374	3	1	3_0.gif
234.007	1	4	0	4	0.475	4	1	4_0.gif
235.007	1	3	0	4	0.003	3	0	3_0.gif
236.007	1	2	0	2	0.523	2	1	2_0.gif
237.007	1	4	0	4	0.568	4	1	4_0.gif
238.007	1	1	0	1	0.508	1	1	1_0.gif
239.007	1	2	0	2	0.379	2	1	2_0.gif
240.007	1	4	2	6	0	1	n/a	4_2.gif
241.007	1	2	2	6	0	2	n/a	2_2.gif
242.007	1	3	2	4	0.618	4	1	3_2.gif
243.007	1	1	2	2	0.617	2	1	1_2.gif
244.007	1	3	2	3	0.53	3	1	3_2.gif
245.007	1	1	2	1	0.495	1	1	1_2.gif
246.007	1	4	2	3	0.43	3	1	4_2.gif
247.007	1	2	2	6	0	1	n/a	2_2.gif
248.007	1	4	2	4	0.547	4	1	4_2.gif
249.007	1	1	2	2	0.423	2	1	1_2.gif
250.007	1	3	2	4	0.478	4	1	3_2.gif
251.007	1	1	2	1	0.46	1	1	1_2.gif
252.007	1	3	2	3	0.371	3	1	3_2.gif
253.007	1	4	2	1	0.462	1	1	4_2.gif
254.007	1	2	2	3	0.425	3	1	2_2.gif
255.007	1	1	2	4	0.688	4	1	1_2.gif
