onset	duration	nback_display	trial_type	response	response_time	correct_response	correct	stim_file
0	1	1	0	1	0.633	1	1	1_0.gif
1	1	3	0	3	0.495	3	1	3_0.gif
2	1	1	0	1	0.674	1	1	1_0.gif
3	1	4	0	6	0	4	n/a	4_0.gif
4	1	1	0	4	0.031	1	0	1_0.gif
5	1	2	0	2	0.452	2	1	2_0.gif
6	1	1	0	1	0.462	1	1	1_0.gif
7	1	4	0	4	0.727	4	1	4_0.gif
8	1	1	0	1	0.54	1	1	1_0.gif
9	1	4	0	4	0.424	4	1	4_0.gif
10	1	3	0	3	0.479	3	1	3_0.gif
11	1	4	0	4	0.559	4	1	4_0.gif
12	1	3	0	3	0.488	3	1	3_0.gif
13	1	1	0	1	0.444	1	1	1_0.gif
14	1	3	0	3	0.606	3	1	3_0.gif
15	1	4	0	4	0.416	4	1	4_0.gif
16	1	1	2	6	0	3	n/a	1_2.gif
17	1	2	2	6	0	4	n/a	2_2.gif
18	1	1	2	1	0.289	1	1	1_2.gif
19	1	3	2	2	0.285	2	1	3_2.gif
20	1	4	2	1	0.632	1	1	4_2.gif
21	1	1	2	3	0.523	3	1	1_2.gif
22	1	2	2	4	0.374	4	1	2_2.gif
23	1	3	2	1	0.495	1	1	3_2.gif
24	1	2	2	2	0.541	2	1	2_2.gif
25	1	4	2	3	0.798	3	1	4_2.gif
26	1	2	2	3	0.003	2	0	2_2.gif
27	1	3	2	6	0	4	n/a	3_2.gif
28	1	1	2	2	0.206	2	1	1_2.gif
29	1	2	2	3	0.272	3	1	2_2.gif
30	1	4	2	1	0.216	1	1	4_2.gif
31	1	3	2	2	0.296	2	1	3_2.gif
32.001	1	2	0	4	0.368	2	0	2_0.gif
33.001	1	1	0	1	0.466	1	1	1_0.gif
34.001	1	2	0	2	0.328	2	1	2_0.gif
35.001	1	3	0	3	0.385	3	1	3_0.gif
36.001	1	2	0	2	0.402	2	1	2_0.gif
37.001	1	1	0	1	0.378	1	1	1_0.gif
38.001	1	4	0	4	0.351	4	1	4_0.gif
39.001	1	1	0	1	0.508	1	1	1_0.gif
40.001	1	3	0	3	0.436	3	1	3_0.gif
41.001	1	4	0	4	0.528	4	1	4_0.gif
42.001	1	3	0	3	0.475	3	1	3_0.gif
43.001	1	1	0	1	0.508	1	1	1_0.gif
44.001	1	2	0	2	0.457	2	1	2_0.gif
45.001	1	1	0	1	0.511	1	1	1_0.gif
46.001	1	3	0	3	0.665	3	1	3_0.gif
47.001	1	4	0	4	0.557	4	1	4_0.gif
48.001	1	3	2	6	0	3	n/a	3_2.gif
49.001	1	1	2	6	0	4	n/a	1_2.gif
50.001	1	4	2	3	0.237	3	1	4_2.gif
51.001	1	1	2	1	0.228	1	1	1_2.gif
52.001	1	3	2	4	0.237	4	1	3_2.gif
53.001	1	4	2	1	0.257	1	1	4_2.gif
54.001	1	2	2	3	0.209	3	1	2_2.gif
55.001	1	1	2	4	0.244	4	1	1_2.gif
56.001	1	4	2	2	0.376	2	1	4_2.gif
57.001	1	2	2	1	0.186	1	1	2_2.gif
58.001	1	4	2	4	0.099	4	1	4_2.gif
59.001	1	3	2	2	0.097	2	1	3_2.gif
60.001	1	2	2	4	0.088	4	1	2_2.gif
61.001	1	4	2	3	0.149	3	1	4_2.gif
62.001	1	2	2	2	0.01	2	1	2_2.gif
63.001	1	4	2	4	0.033	4	1	4_2.gif
64.001	1	1	0	2	0.004	1	0	1_0.gif
65.001	1	3	0	3	0.397	3	1	3_0.gif
66.001	1	1	0	1	0.45	1	1	1_0.gif
67.001	1	2	0	2	0.351	2	1	2_0.gif
68.001	1	1	0	1	0.488	1	1	1_0.gif
69.001	1	3	0	3	0.57	3	1	3_0.gif
70.001	1	2	0	2	0.531	2	1	2_0.gif
71.001	1	4	0	4	0.617	4	1	4_0.gif
72.001	1	2	0	2	0.671	2	1	2_0.gif
73.001	1	4	0	4	0.682	4	1	4_0.gif
74.001	1	3	0	3	0.636	3	1	3_0.gif
75.001	1	1	0	1	0.611	1	1	1_0.gif
76.001	1	3	0	3	0.724	3	1	3_0.gif
77.001	1	4	0	4	0.765	4	1	4_0.gif
78.001	1	3	0	4	0.003	3	0	3_0.gif
79.001	1	4	0	3	0.003	4	0	4_0.gif
80.002	1	1	2	6	0	3	n/a	1_2.gif
81.002	1	2	2	6	0	4	n/a	2_2.gif
82.002	1	3	2	1	0.171	1	1	3_2.gif
83.002	1	2	2	2	0.248	2	1	2_2.gif
84.002	1	3	2	3	0.316	3	1	3_2.gif
85.002	1	4	2	2	0.342	2	1	4_2.gif
86.002	1	1	2	6	0	3	n/a	1_2.gif
87.002	1	2	2	4	0.311	4	1	2_2.gif
88.002	1	3	2	1	0.302	1	1	3_2.gif
89.002	1	4	2	2	0.24	2	1	4_2.gif
90.002	1	3	2	3	0.291	3	1	3_2.gif
91.002	1	1	2	4	0.292	4	1	1_2.gif
92.002	1	2	2	3	0.236	3	1	2_2.gif
93.002	1	1	2	1	0.216	1	1	1_2.gif
94.002	1	3	2	2	0.264	2	1	3_2.gif
95.002	1	1	2	3	0.401	1	0	1_2.gif
96.002	1	2	0	2	0.592	2	1	2_0.gif
97.002	1	4	0	2	0.003	4	0	4_0.gif
98.002	1	1	0	4	0.003	1	0	1_0.gif
99.002	1	4	0	1	0.003	4	0	4_0.gif
100.002	1	2	0	2	0.665	2	1	2_0.gif
101.002	1	1	0	1	0.765	1	1	1_0.gif
102.002	1	2	0	6	0	2	n/a	2_0.gif
103.002	1	3	0	2	0.011	3	0	3_0.gif
104.002	1	4	0	3	0.02	4	0	4_0.gif
105.002	1	3	0	3	0.62	3	1	3_0.gif
106.002	1	2	0	2	0.646	2	1	2_0.gif
107.002	1	3	0	3	0.769	3	1	3_0.gif
108.002	1	1	0	1	0.854	1	1	1_0.gif
109.002	1	2	0	1	0.003	2	0	2_0.gif
110.002	1	4	0	4	0.778	4	1	4_0.gif
111.002	1	1	0	6	0	1	n/a	1_0.gif
112.003	1	3	2	1	0.035	4	0	3_2.gif
113.003	1	4	2	6	0	1	n/a	4_2.gif
114.003	1	3	2	6	0	3	n/a	3_2.gif
115.003	1	1	2	4	0.142	4	1	1_2.gif
116.003	1	2	2	3	0.199	3	1	2_2.gif
117.003	1	4	2	1	0.121	1	1	4_2.gif
118.003	1	2	2	2	0.087	2	1	2_2.gif
119.003	1	3	2	4	0.003	4	1	3_2.gif
120.003	1	2	2	2	0.006	2	1	2_2.gif
121.003	1	4	2	3	0.033	3	1	4_2.gif
122.003	1	3	2	2	0.003	2	1	3_2.gif
123.003	1	4	2	4	0.003	4	1	4_2.gif
124.003	1	3	2	3	0.003	3	1	3_2.gif
125.003	1	4	2	4	0.003	4	1	4_2.gif
126.003	1	2	2	3	0.003	3	1	2_2.gif
127.003	1	1	2	4	0.003	4	1	1_2.gif
128.003	1	2	0	2	0.003	2	1	2_0.gif
129.003	1	3	0	3	0.376	3	1	3_0.gif
130.003	1	4	0	4	0.581	4	1	4_0.gif
131.003	1	1	0	1	0.66	1	1	1_0.gif
132.003	1	3	0	3	0.644	3	1	3_0.gif
133.003	1	2	0	2	0.545	2	1	2_0.gif
134.003	1	4	0	4	0.498	4	1	4_0.gif
135.003	1	1	0	1	0.658	1	1	1_0.gif
136.003	1	3	0	3	0.537	3	1	3_0.gif
137.003	1	4	0	4	0.46	4	1	4_0.gif
138.003	1	1	0	1	0.618	1	1	1_0.gif
139.003	1	2	0	2	0.476	2	1	2_0.gif
140.003	1	1	0	1	0.655	1	1	1_0.gif
141.003	1	3	0	3	0.681	3	1	3_0.gif
142.003	1	4	0	4	0.537	4	1	4_0.gif
143.003	1	3	0	3	0.908	3	1	3_0.gif
144.003	1	2	2	3	0.003	4	0	2_2.gif
145.003	1	3	2	6	0	3	n/a	3_2.gif
146.003	1	4	2	2	0.032	2	1	4_2.gif
147.005	1	2	2	3	0.188	3	1	2_2.gif
148.005	1	4	2	4	0.128	4	1	4_2.gif
149.005	1	3	2	3	0.013	2	0	3_2.gif
150.005	1	1	2	2	0.003	4	0	1_2.gif
151.005	1	4	2	4	0.044	3	0	4_2.gif
152.005	1	3	2	3	0.047	1	0	3_2.gif
153.005	1	1	2	1	0.134	4	0	1_2.gif
154.005	1	3	2	4	0.133	3	0	3_2.gif
155.005	1	1	2	1	0.109	1	1	1_2.gif
156.005	1	3	2	4	0.138	3	0	3_2.gif
157.005	1	4	2	6	0	1	n/a	4_2.gif
158.005	1	1	2	6	0	3	n/a	1_2.gif
159.005	1	3	2	6	0	4	n/a	3_2.gif
160.005	1	4	0	1	0.188	4	0	4_0.gif
161.005	1	2	0	2	0.389	2	1	2_0.gif
162.005	1	4	0	4	0.621	4	1	4_0.gif
163.005	1	1	0	1	0.578	1	1	1_0.gif
164.005	1	2	0	2	0.591	2	1	2_0.gif
165.005	1	4	0	4	0.633	4	1	4_0.gif
166.005	1	2	0	2	0.528	2	1	2_0.gif
167.005	1	4	0	4	0.798	4	1	4_0.gif
168.005	1	2	0	2	0.759	2	1	2_0.gif
169.005	1	3	0	3	0.918	3	1	3_0.gif
170.005	1	4	0	3	0.003	4	0	4_0.gif
171.005	1	3	0	3	0.731	3	1	3_0.gif
172.005	1	1	0	1	0.72	1	1	1_0.gif
173.005	1	4	0	4	0.56	4	1	4_0.gif
174.005	1	1	0	1	0.678	1	1	1_0.gif
175.005	1	2	0	2	0.509	2	1	2_0.gif
176.006	1	1	2	6	0	1	n/a	1_2.gif
177.006	1	2	2	6	0	2	n/a	2_2.gif
178.006	1	3	2	1	0.183	1	1	3_2.gif
179.006	1	4	2	2	0.195	2	1	4_2.gif
180.006	1	1	2	6	0	3	n/a	1_2.gif
181.006	1	2	2	4	0.114	4	1	2_2.gif
182.006	1	4	2	1	0.165	1	1	4_2.gif
183.006	1	2	2	2	0.003	2	1	2_2.gif
184.006	1	1	2	4	0.013	4	1	1_2.gif
185.006	1	2	2	2	0.003	2	1	2_2.gif
186.006	1	4	2	1	0.048	1	1	4_2.gif
187.006	1	1	2	2	0.003	2	1	1_2.gif
188.006	1	2	2	4	0.003	4	1	2_2.gif
189.006	1	3	2	1	0.163	1	1	3_2.gif
190.006	1	2	2	2	0.003	2	1	2_2.gif
191.006	1	1	2	3	0.003	3	1	1_2.gif
192.006	1	4	0	2	0.003	4	0	4_0.gif
193.006	1	3	0	4	0.003	3	0	3_0.gif
194.006	1	1	0	1	0.461	1	1	1_0.gif
195.006	1	3	0	3	0.45	3	1	3_0.gif
196.006	1	4	0	4	0.466	4	1	4_0.gif
197.006	1	2	0	2	0.417	2	1	2_0.gif
198.006	1	4	0	4	0.612	4	1	4_0.gif
199.006	1	3	0	3	0.469	3	1	3_0.gif
200.006	1	4	0	4	0.708	4	1	4_0.gif
201.006	1	2	0	4	0.003	2	0	2_0.gif
202.006	1	4	0	4	0.671	4	1	4_0.gif
203.006	1	1	0	1	0.599	1	1	1_0.gif
204.006	1	4	0	4	0.746	4	1	4_0.gif
205.006	1	1	0	1	0.7	1	1	1_0.gif
206.006	1	3	0	3	0.768	3	1	3_0.gif
207.006	1	2	0	2	0.605	2	1	2_0.gif
208.006	1	1	2	6	0	3	n/a	1_2.gif
209.006	1	4	2	6	0	2	n/a	4_2.gif
210.006	1	1	2	1	0.224	1	1	1_2.gif
211.006	1	4	2	4	0.003	4	1	4_2.gif
212.006	1	3	2	1	0.128	1	1	3_2.gif
213.006	1	4	2	4	0.177	4	1	4_2.gif
214.006	1	3	2	6	0	3	n/a	3_2.gif
215.006	1	1	2	6	0	4	n/a	1_2.gif
216.006	1	3	2	4	0.137	3	0	3_2.gif
217.006	1	4	2	3	0.47	1	0	4_2.gif
218.006	1	1	2	4	0.714	3	0	1_2.gif
219.006	1	2	2	6	0	4	n/a	2_2.gif
220.007	1	1	2	6	0	1	n/a	1_2.gif
221.007	1	3	2	1	0.153	2	0	3_2.gif
222.007	1	4	2	2	0.161	1	0	4_2.gif
223.007	1	1	2	3	0.063	3	1	1_2.gif
224.007	1	2	0	6	0	2	n/a	2_0.gif
225.007	1	3	0	3	0.601	3	1	3_0.gif
226.007	1	2	0	2	0.395	2	1	2_0.gif
227.007	1	4	0	4	0.64	4	1	4_0.gif
228.007	1	2	0	2	0.587	2	1	2_0.gif
229.007	1	3	0	3	0.525	3	1	3_0.gif
230.007	1	1	0	1	0.555	1	1	1_0.gif
231.007	1	2	0	2	0.695	2	1	2_0.gif
232.007	1	4	0	4	0.727	4	1	4_0.gif
233.007	1	3	0	3	0.876	3	1	3_0.gif
234.007	1	2	0	3	0.003	2	0	2_0.gif
235.007	1	1	0	2	0.003	1	0	1_0.gif
236.007	1	2	0	2	0.592	2	1	2_0.gif
237.007	1	3	0	3	0.52	3	1	3_0.gif
238.007	1	2	0	2	0.56	2	1	2_0.gif
239.007	1	1	0	1	0.546	1	1	1_0.gif
240.007	1	4	2	6	0	2	n/a	4_2.gif
241.007	1	1	2	6	0	1	n/a	1_2.gif
242.007	1	3	2	4	0.201	4	1	3_2.gif
243.007	1	4	2	1	0.214	1	1	4_2.gif
244.007	1	3	2	3	0.055	3	1	3_2.gif
245.007	1	1	2	1	0.032	4	0	1_2.gif
246.007	1	2	2	3	0.062	3	1	2_2.gif
247.007	1	1	2	2	0.257	1	0	1_2.gif
248.007	1	3	2	6	0	2	n/a	3_2.gif
249.007	1	4	2	1	0.205	1	1	4_2.gif
250.007	1	3	2	3	0.07	3	1	3_2.gif
251.007	1	1	2	4	0.053	4	1	1_2.gif
252.007	1	4	2	3	0.004	3	1	4_2.gif
253.007	1	1	2	1	0.004	1	1	1_2.gif
254.007	1	3	2	4	0.007	4	1	3_2.gif
255.007	1	4	2	1	0.098	1	1	4_2.gif
