onset	duration	nback_display	trial_type	response	response_time	correct_response	correct	stim_file
0	1	4	0	4	0.928	4	1	4_0.gif
1	1	2	0	4	0.013	2	0	2_0.gif
2	1	1	0	1	0.794	1	1	1_0.gif
3	1	4	0	4	0.701	4	1	4_0.gif
4	1	3	0	3	0.64	3	1	3_0.gif
5	1	4	0	4	0.577	4	1	4_0.gif
6	1	1	0	1	0.479	1	1	1_0.gif
7	1	4	0	4	0.473	4	1	4_0.gif
8	1	1	0	1	0.445	1	1	1_0.gif
9	1	2	0	2	0.434	2	1	2_0.gif
10	1	4	0	4	0.412	4	1	4_0.gif
11	1	1	0	1	0.488	1	1	1_0.gif
12	1	2	0	2	0.399	2	1	2_0.gif
13	1	4	0	4	0.459	4	1	4_0.gif
14	1	2	0	2	0.498	2	1	2_0.gif
15	1	3	0	3	0.556	3	1	3_0.gif
16	1	2	2	6	0	2	n/a	2_2.gif
17	1	3	2	6	0	3	n/a	3_2.gif
18	1	1	2	2	0.219	2	1	1_2.gif
19	1	4	2	3	0.233	3	1	4_2.gif
20	1	3	2	1	0.312	1	1	3_2.gif
21	1	4	2	4	0.299	4	1	4_2.gif
22	1	2	2	3	0.278	3	1	2_2.gif
23	1	4	2	4	0.259	4	1	4_2.gif
24	1	2	2	2	0.298	2	1	2_2.gif
25	1	4	2	4	0.235	4	1	4_2.gif
26	1	3	2	2	0.227	2	1	3_2.gif
27	1	4	2	4	0.202	4	1	4_2.gif
28	1	2	2	3	0.325	3	1	2_2.gif
29	1	3	2	4	0.265	4	1	3_2.gif
30	1	2	2	2	0.331	2	1	2_2.gif
31	1	1	2	3	0.293	3	1	1_2.gif
32.001	1	2	0	2	0.319	2	1	2_0.gif
33.001	1	4	0	4	0.519	4	1	4_0.gif
34.001	1	1	0	1	0.446	1	1	1_0.gif
35.001	1	3	0	3	0.468	3	1	3_0.gif
36.001	1	2	0	2	0.535	2	1	2_0.gif
37.001	1	3	0	6	0	3	n/a	3_0.gif
38.001	1	1	0	3	0.027	1	0	1_0.gif
39.003	1	4	0	4	0.507	4	1	4_0.gif
40.003	1	1	0	1	0.631	1	1	1_0.gif
41.003	1	4	0	4	0.569	4	1	4_0.gif
42.003	1	3	0	3	0.627	3	1	3_0.gif
43.003	1	4	0	4	0.608	4	1	4_0.gif
44.003	1	2	0	2	0.552	2	1	2_0.gif
45.003	1	3	0	3	0.581	3	1	3_0.gif
46.003	1	4	0	4	0.574	4	1	4_0.gif
47.003	1	1	0	1	0.532	1	1	1_0.gif
48.004	1	2	2	6	0	4	n/a	2_2.gif
49.004	1	3	2	6	0	1	n/a	3_2.gif
50.004	1	4	2	2	0.233	2	1	4_2.gif
51.004	1	3	2	3	0.256	3	1	3_2.gif
52.004	1	4	2	4	0.344	4	1	4_2.gif
53.004	1	3	2	3	0.352	3	1	3_2.gif
54.004	1	2	2	4	0.362	4	1	2_2.gif
55.004	1	4	2	3	0.376	3	1	4_2.gif
56.004	1	1	2	2	0.392	2	1	1_2.gif
57.004	1	4	2	4	0.315	4	1	4_2.gif
58.004	1	3	2	1	0.359	1	1	3_2.gif
59.004	1	1	2	4	0.225	4	1	1_2.gif
60.004	1	3	2	3	0.208	3	1	3_2.gif
61.004	1	2	2	1	0.196	1	1	2_2.gif
62.004	1	3	2	3	0.203	3	1	3_2.gif
63.004	1	1	2	2	0.232	2	1	1_2.gif
64.005	1	4	0	3	0.214	4	0	4_0.gif
65.005	1	2	0	2	0.455	2	1	2_0.gif
66.005	1	4	0	4	0.435	4	1	4_0.gif
67.005	1	1	0	1	0.51	1	1	1_0.gif
68.005	1	4	0	4	0.443	4	1	4_0.gif
69.005	1	2	0	2	0.516	2	1	2_0.gif
70.005	1	3	0	3	0.497	3	1	3_0.gif
71.005	1	2	0	2	0.634	2	1	2_0.gif
72.005	1	1	0	1	0.598	1	1	1_0.gif
73.005	1	2	0	2	0.639	2	1	2_0.gif
74.005	1	3	0	3	0.827	3	1	3_0.gif
75.005	1	1	0	1	0.585	1	1	1_0.gif
76.005	1	4	0	4	0.493	4	1	4_0.gif
77.005	1	2	0	2	0.37	2	1	2_0.gif
78.005	1	3	0	3	0.532	3	1	3_0.gif
79.005	1	1	0	1	0.407	1	1	1_0.gif
80.009	1	3	2	6	0	3	n/a	3_2.gif
81.009	1	2	2	6	0	1	n/a	2_2.gif
82.009	1	3	2	3	0.236	3	1	3_2.gif
83.009	1	1	2	2	0.209	2	1	1_2.gif
84.009	1	2	2	3	0.287	3	1	2_2.gif
85.009	1	4	2	1	0.219	1	1	4_2.gif
86.009	1	2	2	2	0.264	2	1	2_2.gif
87.009	1	4	2	4	0.249	4	1	4_2.gif
88.009	1	1	2	2	0.272	2	1	1_2.gif
89.009	1	3	2	4	0.181	4	1	3_2.gif
90.009	1	4	2	1	0.205	1	1	4_2.gif
91.009	1	3	2	3	0.239	3	1	3_2.gif
92.009	1	2	2	2	0.326	4	0	2_2.gif
93.009	1	1	2	6	0	3	n/a	1_2.gif
94.009	1	3	2	6	0	2	n/a	3_2.gif
95.009	1	1	2	1	0.288	1	1	1_2.gif
96.01	1	4	0	4	0.625	4	1	4_0.gif
97.01	1	3	0	6	0	3	n/a	3_0.gif
98.01	1	1	0	3	0.086	1	0	1_0.gif
99.01	1	2	0	2	0.703	2	1	2_0.gif
100.01	1	3	0	3	0.567	3	1	3_0.gif
101.01	1	1	0	1	0.493	1	1	1_0.gif
102.01	1	2	0	2	0.508	2	1	2_0.gif
103.01	1	3	0	3	0.638	3	1	3_0.gif
104.01	1	4	0	4	0.52	4	1	4_0.gif
105.01	1	2	0	2	0.617	2	1	2_0.gif
106.01	1	4	0	4	0.54	4	1	4_0.gif
107.01	1	3	0	3	0.461	3	1	3_0.gif
108.01	1	4	0	4	0.508	4	1	4_0.gif
109.01	1	3	0	3	0.576	3	1	3_0.gif
110.01	1	4	0	4	0.487	4	1	4_0.gif
111.01	1	1	0	1	0.479	1	1	1_0.gif
112.01	1	3	2	6	0	4	n/a	3_2.gif
113.01	1	1	2	6	0	1	n/a	1_2.gif
114.01	1	2	2	3	0.385	3	1	2_2.gif
115.01	1	1	2	1	0.282	1	1	1_2.gif
116.01	1	2	2	2	0.302	2	1	2_2.gif
117.01	1	3	2	1	0.34	1	1	3_2.gif
118.01	1	2	2	2	0.384	2	1	2_2.gif
119.01	1	3	2	3	0.462	3	1	3_2.gif
120.01	1	4	2	2	0.461	2	1	4_2.gif
121.01	1	3	2	4	0.822	3	0	3_2.gif
122.01	1	4	2	4	0.014	4	1	4_2.gif
123.01	1	1	2	6	0	3	n/a	1_2.gif
124.01	1	3	2	4	0.317	4	1	3_2.gif
125.01	1	4	2	1	0.263	1	1	4_2.gif
126.01	1	1	2	3	0.322	3	1	1_2.gif
127.01	1	3	2	4	0.295	4	1	3_2.gif
128.011	1	4	0	1	0.385	4	0	4_0.gif
129.011	1	2	0	2	0.508	2	1	2_0.gif
130.011	1	3	0	3	0.48	3	1	3_0.gif
131.011	1	4	0	4	0.5	4	1	4_0.gif
132.011	1	1	0	1	0.472	1	1	1_0.gif
133.011	1	4	0	4	0.535	4	1	4_0.gif
134.011	1	3	0	3	0.722	3	1	3_0.gif
135.011	1	2	0	2	0.628	2	1	2_0.gif
136.011	1	3	0	3	0.563	3	1	3_0.gif
137.011	1	2	0	2	0.524	2	1	2_0.gif
138.011	1	1	0	1	0.421	1	1	1_0.gif
139.011	1	2	0	2	0.585	2	1	2_0.gif
140.011	1	4	0	4	0.507	4	1	4_0.gif
141.011	1	2	0	2	0.502	2	1	2_0.gif
142.011	1	4	0	4	0.601	4	1	4_0.gif
143.011	1	2	0	2	0.478	2	1	2_0.gif
144.011	1	4	2	6	0	4	n/a	4_2.gif
145.011	1	2	2	6	0	2	n/a	2_2.gif
146.011	1	4	2	4	0.321	4	1	4_2.gif
147.011	1	3	2	2	0.305	2	1	3_2.gif
148.011	1	2	2	4	0.303	4	1	2_2.gif
149.011	1	3	2	3	0.298	3	1	3_2.gif
150.011	1	4	2	2	0.26	2	1	4_2.gif
151.011	1	2	2	3	0.302	3	1	2_2.gif
152.011	1	1	2	4	0.29	4	1	1_2.gif
153.011	1	3	2	2	0.289	2	1	3_2.gif
154.011	1	4	2	1	0.27	1	1	4_2.gif
155.011	1	1	2	3	0.26	3	1	1_2.gif
156.011	1	3	2	4	0.235	4	1	3_2.gif
157.011	1	1	2	1	0.328	1	1	1_2.gif
158.011	1	3	2	3	0.366	3	1	3_2.gif
159.011	1	1	2	1	0.4	1	1	1_2.gif
160.012	1	2	0	2	0.857	2	1	2_0.gif
161.012	1	3	0	2	0.013	3	0	3_0.gif
162.012	1	2	0	2	0.412	2	1	2_0.gif
163.012	1	1	0	1	0.47	1	1	1_0.gif
164.012	1	3	0	3	0.617	3	1	3_0.gif
165.012	1	1	0	1	0.623	1	1	1_0.gif
166.012	1	3	0	3	0.957	3	1	3_0.gif
167.012	1	4	0	3	0.013	4	0	4_0.gif
168.012	1	1	0	4	0.014	1	0	1_0.gif
169.012	1	4	0	4	0.453	4	1	4_0.gif
170.012	1	1	0	1	0.442	1	1	1_0.gif
171.012	1	3	0	3	0.454	3	1	3_0.gif
172.012	1	1	0	1	0.473	1	1	1_0.gif
173.012	1	2	0	2	0.507	2	1	2_0.gif
174.012	1	3	0	3	0.513	3	1	3_0.gif
175.012	1	2	0	2	0.502	2	1	2_0.gif
176.013	1	4	2	6	0	3	n/a	4_2.gif
177.013	1	1	2	6	0	2	n/a	1_2.gif
178.013	1	4	2	4	0.285	4	1	4_2.gif
179.013	1	1	2	1	0.218	1	1	1_2.gif
180.013	1	4	2	4	0.207	4	1	4_2.gif
181.013	1	3	2	1	0.279	1	1	3_2.gif
182.013	1	4	2	6	0	4	n/a	4_2.gif
183.013	1	1	2	3	0.053	3	1	1_2.gif
184.013	1	2	2	2	0.02	4	0	2_2.gif
185.013	1	3	2	1	0.013	1	1	3_2.gif
186.013	1	1	2	3	0.013	2	0	1_2.gif
187.013	1	3	2	6	0	3	n/a	3_2.gif
188.013	1	2	2	1	0.247	1	1	2_2.gif
189.013	1	3	2	3	0.215	3	1	3_2.gif
190.013	1	1	2	2	0.28	2	1	1_2.gif
191.013	1	3	2	3	0.3	3	1	3_2.gif
192.013	1	1	0	1	0.356	1	1	1_0.gif
193.013	1	3	0	3	0.415	3	1	3_0.gif
194.013	1	1	0	1	0.483	1	1	1_0.gif
195.013	1	4	0	4	0.488	4	1	4_0.gif
196.013	1	2	0	2	0.441	2	1	2_0.gif
197.013	1	1	0	1	0.483	1	1	1_0.gif
198.013	1	4	0	4	0.562	4	1	4_0.gif
199.013	1	3	0	3	0.592	3	1	3_0.gif
200.013	1	4	0	4	0.589	4	1	4_0.gif
201.013	1	1	0	1	0.623	1	1	1_0.gif
202.013	1	4	0	4	0.55	4	1	4_0.gif
203.013	1	1	0	1	0.586	1	1	1_0.gif
204.013	1	2	0	2	0.826	2	1	2_0.gif
205.013	1	4	0	2	0.014	4	0	4_0.gif
206.013	1	1	0	1	0.688	1	1	1_0.gif
207.013	1	2	0	2	0.684	2	1	2_0.gif
208.014	1	4	2	6	0	1	n/a	4_2.gif
209.014	1	2	2	6	0	2	n/a	2_2.gif
210.014	1	3	2	4	0.704	4	1	3_2.gif
211.014	1	2	2	2	0.453	2	1	2_2.gif
212.014	1	3	2	3	0.273	3	1	3_2.gif
213.014	1	1	2	2	0.178	2	1	1_2.gif
214.014	1	4	2	3	0.155	3	1	4_2.gif
215.014	1	3	2	1	0.114	1	1	3_2.gif
216.014	1	4	2	4	0.027	4	1	4_2.gif
217.014	1	2	2	3	0.288	3	1	2_2.gif
218.014	1	4	2	4	0.202	4	1	4_2.gif
219.014	1	2	2	2	0.138	2	1	2_2.gif
220.014	1	4	2	4	0.15	4	1	4_2.gif
221.014	1	3	2	2	0.206	2	1	3_2.gif
222.014	1	4	2	4	0.15	4	1	4_2.gif
223.014	1	2	2	3	0.194	3	1	2_2.gif
224.014	1	3	0	4	0.18	3	0	3_0.gif
225.014	1	2	0	2	0.406	2	1	2_0.gif
226.014	1	1	0	1	0.377	1	1	1_0.gif
227.015	1	2	0	2	0.558	2	1	2_0.gif
228.015	1	4	0	4	0.578	4	1	4_0.gif
229.015	1	1	0	1	0.498	1	1	1_0.gif
230.015	1	3	0	3	0.737	3	1	3_0.gif
231.015	1	2	0	2	0.688	2	1	2_0.gif
232.015	1	3	0	3	0.611	3	1	3_0.gif
233.015	1	1	0	1	0.567	1	1	1_0.gif
234.015	1	4	0	4	0.501	4	1	4_0.gif
235.015	1	1	0	1	0.599	1	1	1_0.gif
236.015	1	4	0	4	0.635	4	1	4_0.gif
237.015	1	3	0	3	0.555	3	1	3_0.gif
238.015	1	4	0	4	0.525	4	1	4_0.gif
239.015	1	2	0	2	0.518	2	1	2_0.gif
240.015	1	3	2	6	0	4	n/a	3_2.gif
241.015	1	4	2	6	0	2	n/a	4_2.gif
242.015	1	1	2	3	0.266	3	1	1_2.gif
243.015	1	2	2	4	0.253	4	1	2_2.gif
244.015	1	3	2	1	0.225	1	1	3_2.gif
245.015	1	4	2	2	0.227	2	1	4_2.gif
246.015	1	3	2	3	0.246	3	1	3_2.gif
247.015	1	4	2	4	0.196	4	1	4_2.gif
248.015	1	3	2	6	0	3	n/a	3_2.gif
249.015	1	2	2	6	0	4	n/a	2_2.gif
250.015	1	4	2	1	0.291	3	0	4_2.gif
251.015	1	1	2	6	0	2	n/a	1_2.gif
252.015	1	4	2	6	0	4	n/a	4_2.gif
253.015	1	3	2	1	0.453	1	1	3_2.gif
254.015	1	1	2	2	0.282	4	0	1_2.gif
255.015	1	3	2	3	0.296	3	1	3_2.gif
