onset	duration	nback_display	trial_type	response	response_time	correct_response	correct	stim_file
0	1	4	0	4	0.957	4	1	4_0.gif
1	1	3	0	4	0.013	3	0	3_0.gif
2	1	2	0	2	0.433	2	1	2_0.gif
3	1	4	0	4	0.446	4	1	4_0.gif
4	1	3	0	3	0.452	3	1	3_0.gif
5	1	1	0	1	0.347	1	1	1_0.gif
6	1	3	0	3	0.466	3	1	3_0.gif
7	1	4	0	4	0.87	4	1	4_0.gif
8	1	1	0	4	0.013	1	0	1_0.gif
9	1	3	0	3	0.433	3	1	3_0.gif
10	1	1	0	1	0.404	1	1	1_0.gif
11	1	2	0	2	0.473	2	1	2_0.gif
12	1	3	0	3	0.448	3	1	3_0.gif
13	1	1	0	1	0.504	1	1	1_0.gif
14	1	3	0	3	0.457	3	1	3_0.gif
15	1	2	0	2	0.486	2	1	2_0.gif
16.001	1	1	2	6	0	3	n/a	1_2.gif
17.001	1	3	2	6	0	2	n/a	3_2.gif
18.001	1	2	2	1	0.207	1	1	2_2.gif
19.001	1	4	2	3	0.102	3	1	4_2.gif
20.001	1	1	2	2	0.206	2	1	1_2.gif
21.001	1	3	2	4	0.307	4	1	3_2.gif
22.001	1	1	2	1	0.521	1	1	1_2.gif
23.001	1	3	2	3	0.523	3	1	3_2.gif
24.001	1	2	2	1	0.676	1	1	2_2.gif
25.001	1	3	2	3	0.665	3	1	3_2.gif
26.001	1	2	2	2	0.492	2	1	2_2.gif
27.001	1	3	2	3	0.669	3	1	3_2.gif
28.001	1	2	2	2	0.921	2	1	2_2.gif
29.001	1	4	2	2	0.013	3	0	4_2.gif
30.001	1	2	2	3	0.11	2	0	2_2.gif
31.001	1	3	2	4	0.014	4	1	3_2.gif
32.002	1	1	0	2	0.013	1	0	1_0.gif
33.002	1	2	0	1	0.013	2	0	2_0.gif
34.002	1	1	0	1	0.465	1	1	1_0.gif
35.002	1	3	0	3	0.473	3	1	3_0.gif
36.002	1	4	0	6	0	4	n/a	4_0.gif
37.002	1	3	0	4	0.013	3	0	3_0.gif
38.002	1	4	0	4	0.506	4	1	4_0.gif
39.002	1	3	0	3	0.409	3	1	3_0.gif
40.002	1	1	0	1	0.436	1	1	1_0.gif
41.002	1	2	0	2	0.398	2	1	2_0.gif
42.002	1	3	0	3	0.456	3	1	3_0.gif
43.002	1	2	0	2	0.508	2	1	2_0.gif
44.002	1	4	0	4	0.538	4	1	4_0.gif
45.002	1	1	0	1	0.57	1	1	1_0.gif
46.002	1	2	0	2	0.56	2	1	2_0.gif
47.002	1	3	0	3	0.514	3	1	3_0.gif
48.003	1	2	2	6	0	2	n/a	2_2.gif
49.003	1	1	2	6	0	3	n/a	1_2.gif
50.003	1	3	2	2	0.185	2	1	3_2.gif
51.003	1	4	2	1	0.293	1	1	4_2.gif
52.003	1	1	2	3	0.369	3	1	1_2.gif
53.003	1	3	2	4	0.419	4	1	3_2.gif
54.003	1	4	2	6	0	1	n/a	4_2.gif
55.003	1	1	2	6	0	3	n/a	1_2.gif
56.003	1	2	2	3	0.093	4	0	2_2.gif
57.003	1	3	2	4	0.013	1	0	3_2.gif
58.003	1	4	2	2	0.762	2	1	4_2.gif
59.003	1	3	2	2	0.013	3	0	3_2.gif
60.003	1	2	2	3	0.103	4	0	2_2.gif
61.003	1	4	2	4	0.108	3	0	4_2.gif
62.003	1	2	2	2	0.57	2	1	2_2.gif
63.003	1	1	2	4	0.533	4	1	1_2.gif
64.003	1	4	0	2	0.45	4	0	4_0.gif
65.003	1	3	0	4	0.013	3	0	3_0.gif
66.003	1	1	0	1	0.518	1	1	1_0.gif
67.003	1	3	0	3	0.552	3	1	3_0.gif
68.003	1	4	0	4	0.745	4	1	4_0.gif
69.003	1	1	0	1	0.578	1	1	1_0.gif
70.003	1	3	0	3	0.559	3	1	3_0.gif
71.003	1	4	0	4	0.432	4	1	4_0.gif
72.003	1	2	0	2	0.417	2	1	2_0.gif
73.003	1	3	0	3	0.484	3	1	3_0.gif
74.003	1	1	0	1	0.456	1	1	1_0.gif
75.003	1	2	0	2	0.51	2	1	2_0.gif
76.003	1	1	0	1	0.499	1	1	1_0.gif
77.003	1	2	0	2	0.501	2	1	2_0.gif
78.003	1	4	0	4	0.521	4	1	4_0.gif
79.003	1	3	0	3	0.527	3	1	3_0.gif
80.004	1	2	2	6	0	4	n/a	2_2.gif
81.004	1	3	2	6	0	3	n/a	3_2.gif
82.004	1	2	2	2	0.12	2	1	2_2.gif
83.004	1	1	2	3	0.141	3	1	1_2.gif
84.004	1	2	2	2	0.089	2	1	2_2.gif
85.004	1	1	2	1	0.135	1	1	1_2.gif
86.004	1	4	2	2	0.148	2	1	4_2.gif
87.004	1	1	2	1	0.123	1	1	1_2.gif
88.004	1	2	2	4	0.073	4	1	2_2.gif
89.004	1	3	2	1	0.025	1	1	3_2.gif
90.004	1	4	2	2	0.014	2	1	4_2.gif
91.004	1	3	2	3	0.04	3	1	3_2.gif
92.005	1	4	2	4	0.115	4	1	4_2.gif
93.005	1	3	2	3	0.169	3	1	3_2.gif
94.005	1	1	2	4	0.256	4	1	1_2.gif
95.005	1	2	2	3	0.157	3	1	2_2.gif
96.005	1	3	0	1	0.047	3	0	3_0.gif
97.005	1	4	0	3	0.15	4	0	4_0.gif
98.005	1	3	0	4	0.014	3	0	3_0.gif
99.005	1	2	0	2	0.547	2	1	2_0.gif
100.005	1	1	0	1	0.406	1	1	1_0.gif
101.005	1	4	0	4	0.466	4	1	4_0.gif
102.005	1	1	0	1	0.408	1	1	1_0.gif
103.005	1	2	0	2	0.429	2	1	2_0.gif
104.005	1	3	0	3	0.453	3	1	3_0.gif
105.005	1	2	0	2	0.42	2	1	2_0.gif
106.005	1	4	0	4	0.424	4	1	4_0.gif
107.005	1	2	0	2	0.485	2	1	2_0.gif
108.005	1	1	0	1	0.436	1	1	1_0.gif
109.005	1	3	0	3	0.332	3	1	3_0.gif
110.005	1	1	0	1	0.388	1	1	1_0.gif
111.005	1	3	0	3	0.438	3	1	3_0.gif
112.006	1	1	2	6	0	1	n/a	1_2.gif
113.006	1	3	2	1	0.998	3	0	3_2.gif
114.009	1	1	2	1	0.014	1	1	1_2.gif
115.009	1	3	2	3	0.051	3	1	3_2.gif
116.009	1	2	2	1	0.036	1	1	2_2.gif
117.009	1	1	2	3	0.04	3	1	1_2.gif
118.009	1	3	2	2	0.043	2	1	3_2.gif
119.009	1	2	2	1	0.014	1	1	2_2.gif
120.009	1	4	2	3	0.013	3	1	4_2.gif
121.01	1	3	2	2	0.013	2	1	3_2.gif
122.01	1	4	2	4	0.013	4	1	4_2.gif
123.01	1	3	2	3	0.014	3	1	3_2.gif
124.01	1	2	2	4	0.015	4	1	2_2.gif
125.01	1	1	2	3	0.013	3	1	1_2.gif
126.01	1	3	2	2	0.013	2	1	3_2.gif
127.01	1	4	2	1	0.013	1	1	4_2.gif
128.01	1	1	0	3	0.019	1	0	1_0.gif
129.01	1	3	0	1	0.013	3	0	3_0.gif
130.01	1	2	0	2	0.44	2	1	2_0.gif
131.01	1	3	0	3	0.436	3	1	3_0.gif
132.01	1	1	0	1	0.367	1	1	1_0.gif
133.01	1	2	0	2	0.343	2	1	2_0.gif
134.01	1	1	0	1	0.417	1	1	1_0.gif
135.01	1	2	0	2	0.405	2	1	2_0.gif
136.01	1	3	0	3	0.416	3	1	3_0.gif
137.01	1	1	0	1	0.429	1	1	1_0.gif
138.01	1	4	0	4	0.459	4	1	4_0.gif
139.01	1	1	0	1	0.393	1	1	1_0.gif
140.01	1	2	0	2	0.403	2	1	2_0.gif
141.01	1	1	0	1	0.45	1	1	1_0.gif
142.01	1	3	0	3	0.47	3	1	3_0.gif
143.01	1	1	0	1	0.46	1	1	1_0.gif
144.011	1	4	2	6	0	3	n/a	4_2.gif
145.011	1	3	2	6	0	1	n/a	3_2.gif
146.011	1	2	2	4	0.216	4	1	2_2.gif
147.011	1	1	2	3	0.259	3	1	1_2.gif
148.011	1	3	2	2	0.19	2	1	3_2.gif
149.011	1	2	2	1	0.117	1	1	2_2.gif
150.011	1	1	2	3	0.014	3	1	1_2.gif
151.011	1	2	2	2	0.014	2	1	2_2.gif
152.011	1	3	2	1	0.053	1	1	3_2.gif
153.011	1	2	2	2	0.013	2	1	2_2.gif
154.011	1	4	2	3	0.014	3	1	4_2.gif
155.011	1	1	2	2	0.013	2	1	1_2.gif
156.011	1	3	2	4	0.014	4	1	3_2.gif
157.011	1	4	2	1	0.014	1	1	4_2.gif
158.011	1	1	2	3	0.013	3	1	1_2.gif
159.011	1	3	2	4	0.014	4	1	3_2.gif
160.012	1	4	0	1	0.013	4	0	4_0.gif
161.012	1	3	0	4	0.014	3	0	3_0.gif
162.012	1	4	0	4	0.465	4	1	4_0.gif
163.012	1	2	0	2	0.43	2	1	2_0.gif
164.012	1	3	0	3	0.357	3	1	3_0.gif
165.012	1	2	0	2	0.445	2	1	2_0.gif
166.012	1	1	0	1	0.484	1	1	1_0.gif
167.012	1	4	0	4	0.459	4	1	4_0.gif
168.012	1	3	0	3	0.472	3	1	3_0.gif
169.012	1	4	0	4	0.501	4	1	4_0.gif
170.012	1	3	0	3	0.427	3	1	3_0.gif
171.012	1	1	0	1	0.448	1	1	1_0.gif
172.012	1	2	0	2	0.38	2	1	2_0.gif
173.012	1	4	0	4	0.366	4	1	4_0.gif
174.012	1	2	0	2	0.439	2	1	2_0.gif
175.012	1	3	0	3	0.435	3	1	3_0.gif
176.012	1	4	2	6	0	2	n/a	4_2.gif
177.013	1	3	2	6	0	3	n/a	3_2.gif
178.013	1	1	2	4	0.116	4	1	1_2.gif
179.013	1	2	2	3	0.133	3	1	2_2.gif
180.013	1	1	2	1	0.025	1	1	1_2.gif
181.013	1	3	2	2	0.013	2	1	3_2.gif
182.013	1	2	2	1	0.014	1	1	2_2.gif
183.013	1	3	2	3	0.013	3	1	3_2.gif
184.013	1	2	2	3	0.536	2	0	2_2.gif
185.013	1	1	2	2	0.452	3	0	1_2.gif
186.013	1	2	2	1	0.428	2	0	2_2.gif
187.013	1	4	2	2	0.44	1	0	4_2.gif
188.013	1	2	2	6	0	2	n/a	2_2.gif
189.013	1	1	2	4	0.39	4	1	1_2.gif
190.013	1	2	2	2	0.204	2	1	2_2.gif
191.013	1	3	2	1	0.097	1	1	3_2.gif
192.013	1	1	0	2	0.013	1	0	1_0.gif
193.013	1	4	0	1	0.014	4	0	4_0.gif
194.013	1	2	0	2	0.453	2	1	2_0.gif
195.013	1	1	0	1	0.504	1	1	1_0.gif
196.013	1	4	0	4	0.522	4	1	4_0.gif
197.013	1	3	0	3	0.458	3	1	3_0.gif
198.013	1	2	0	2	0.387	2	1	2_0.gif
199.013	1	4	0	6	0	4	n/a	4_0.gif
200.013	1	3	0	3	0.439	3	1	3_0.gif
201.013	1	1	0	1	0.402	1	1	1_0.gif
202.013	1	3	0	3	0.44	3	1	3_0.gif
203.013	1	4	0	4	0.425	4	1	4_0.gif
204.013	1	1	0	1	0.421	1	1	1_0.gif
205.013	1	3	0	3	0.4	3	1	3_0.gif
206.013	1	1	0	1	0.523	1	1	1_0.gif
207.013	1	2	0	2	0.46	2	1	2_0.gif
208.014	1	3	2	6	0	1	n/a	3_2.gif
209.014	1	1	2	6	0	2	n/a	1_2.gif
210.014	1	3	2	3	0.057	3	1	3_2.gif
211.014	1	2	2	1	0.015	1	1	2_2.gif
212.014	1	1	2	3	0.014	3	1	1_2.gif
213.014	1	3	2	2	0.014	2	1	3_2.gif
214.014	1	2	2	1	0.014	1	1	2_2.gif
215.014	1	4	2	3	0.033	3	1	4_2.gif
216.014	1	1	2	2	0.014	2	1	1_2.gif
217.014	1	3	2	4	0.022	4	1	3_2.gif
218.014	1	1	2	1	0.077	1	1	1_2.gif
219.014	1	3	2	3	0.047	3	1	3_2.gif
220.014	1	2	2	1	0.014	1	1	2_2.gif
221.014	1	3	2	3	0.097	3	1	3_2.gif
222.014	1	2	2	2	0.034	2	1	2_2.gif
223.014	1	3	2	3	0.014	3	1	3_2.gif
224.015	1	2	0	2	0.014	2	1	2_0.gif
225.015	1	4	0	4	0.439	4	1	4_0.gif
226.015	1	2	0	2	0.502	2	1	2_0.gif
227.015	1	3	0	3	0.454	3	1	3_0.gif
228.015	1	1	0	1	0.414	1	1	1_0.gif
229.015	1	2	0	2	0.435	2	1	2_0.gif
230.015	1	1	0	1	0.4	1	1	1_0.gif
231.015	1	3	0	3	0.411	3	1	3_0.gif
232.015	1	4	0	4	0.331	4	1	4_0.gif
233.015	1	3	0	3	0.503	3	1	3_0.gif
234.015	1	4	0	4	0.508	4	1	4_0.gif
235.015	1	3	0	3	0.473	3	1	3_0.gif
236.015	1	1	0	1	0.499	1	1	1_0.gif
237.015	1	2	0	2	0.353	2	1	2_0.gif
238.015	1	3	0	3	0.366	3	1	3_0.gif
239.015	1	2	0	2	0.416	2	1	2_0.gif
240.015	1	4	2	6	0	3	n/a	4_2.gif
241.015	1	1	2	6	0	2	n/a	1_2.gif
242.015	1	2	2	4	0.015	4	1	2_2.gif
243.015	1	3	2	1	0.014	1	1	3_2.gif
244.015	1	2	2	2	0.014	2	1	2_2.gif
245.015	1	1	2	3	0.014	3	1	1_2.gif
246.015	1	3	2	2	0.014	2	1	3_2.gif
247.016	1	4	2	3	0.013	1	0	4_2.gif
248.016	1	1	2	6	0	3	n/a	1_2.gif
249.016	1	3	2	3	0.048	4	0	3_2.gif
250.016	1	4	2	4	0.037	1	0	4_2.gif
251.016	1	1	2	1	0.013	3	0	1_2.gif
252.016	1	2	2	3	0.014	4	0	2_2.gif
253.016	1	3	2	4	0.013	1	0	3_2.gif
254.016	1	4	2	6	0	2	n/a	4_2.gif
255.016	1	3	2	3	0.046	3	1	3_2.gif
